Folder: echemistpy/docs/examples/XRD/IS17_D/Data/IS17_D (part 23)

File: 17_Db_f00051.xye
# /beamlines/bl04/projects/cycle2025-II/20250340211-lsimonelli/DATA/IS17_D/17_Db_f00051.xye : mythproc.py merge -s 0.006 -l 0.5 -f /beamlines/bl04/inhouse/ff/FlatField/ff_20Nov2024rod8mm60s_17keV.raw -b True -c true -o xye /beamlines/bl04/projects/cycle2025-II/20250340211-lsimonelli/DATA/IS17_D/17_Db_00051.dat
# IsMon = [6749259, 6748174, 6749726]  IsPos = [-1.4999, -2.4885, -3.4988]
# Wave = 0.4962  CalPath /beamlines/bl04/projects/cycle2025-II/20250340211-lsimonelli/DATA/Align/Si_Pos1_25keV_f00001.cal
# Date = 2025-09-24_07:54:11 Dt = 4.8000  Bin = 0.0060  <imon> = 6749053 +/- 650 (Min/Max) 6748174 / 6749726
# icurr 249.2259  mocoIn 1.7009E-05  mocoOut 0.7981  i15 7.06922e+06  imon 6.74905e+06  i7 3.3333  iEMpd_timer 4.8000  iEMpd_1 3.5093E-08  iEMpd_2 7.8526E-08  iEMpd_3 1.6997E-08  iEMpd_4 4.6928E-08  iEMhp_timer 4.8000  iEMhp_1 4.8710E-06  iEMhp_2 -2.5414E-08  iEMhp_3 -2.3558E-08  iEMhp_4 -2.1866E-08
#      9776
 1.7416  70704.3  265.975
 1.9396  48889.3  221.454
 2.1376  36116.1  190.336
 2.3356  32237.3  179.446
 2.5336  30302.8  174.591
 2.7316  27763.8  167.244
 2.9296  26661.2  164.05
 3.1276  26098.5  161.834
 3.3256  25233.7  158.8
 3.5236  26765.3  163.49
 3.7216  24658.1  158.047
 3.9196  23956.5  154.979
 4.1176  23793.4  154.237
 4.3156  24775.3  157.558
 4.5136  27046.5  163.591
 4.7116  27998  167.585
 4.9096  27569.4  165.725
 5.1076  27283.8  165.448
 5.3056  27292.3  165.197
 5.5036  26875.7  163.927
 5.7016  27054  164.346
 5.8996  27504.6  164.94
 6.0976  28733  169.996
 6.2956  28851.1  169.699
 6.4936  29370.8  170.417
 6.6916  29945.9  173.072
 6.8896  31008.6  175.958
 7.0876  31823.6  179.004
 7.2856  31692.1  177.676
 7.4836  31983.1  177.839
 7.6816  32967.2  181.073
 7.8796  33965.6  183.806
 8.0776  35312.7  188.406
 8.2756  36638.4  190.526
 8.4736  37571.3  192.747
 8.6716  36846.7  191.507
 8.8696  37584.8  193.908
 9.0676  36553  190.546
 9.2656  35544.6  188.606
 9.4636  34551  184.408
 9.6616  33944.7  183.512
 9.8596  33334.2  181.315
 10.0576  30939.1  175.342
 10.2556  30069.7  173.308
 10.4536  29311.9  170.712
 10.6516  28381.9  168.188
 10.8496  27282.9  164.312
 11.0476  26407.5  161.625
 11.2456  25736.3  160.138
 11.4436  25939.9  159.944
 11.6416  26968.7  163.431
 11.8396  24975.6  157.48
 12.0376  24391.6  155.258
 12.2356  24063.8  154.671
 12.4336  23903.6  153.674
 12.6316  23871.3  153.824
 12.8296  24015.7  153.914
 13.0276  24347.3  155.173
 13.2256  24734.6  156.775
 13.4236  24454.7  155.656
 13.6216  24852.5  156.905
 13.8196  26861.4  162.584
 14.0176  23789.3  153.596
 14.2156  23353.4  151.213
 14.4136  22379.2  149.411
 14.6116  21988.1  147.294
 14.8096  21193.3  144.582
 15.0076  20270.7  145.297
 15.2056  19353.7  137.797
 15.4036  18441  135.323
 15.6016  18161.5  133.394
 15.7996  17667.5  131.829
 15.9976  17385.7  133.694
 16.1956  17005.4  130.067
 16.3936  16601.1  127.719
 16.5916  16156.3  126.637
 16.7896  16398.2  127.629
 16.9876  16334  128.852
 17.1856  16070.2  126.188
 17.3836  15618.7  124.306
 17.5816  15258.8  123.342
 17.7796  14969.4  122.106
 17.9776  14437  120.672
 18.1756  14512.5  119.749
 18.3736  14425.8  119.874
 18.5716  14209.3  118.724
 18.7696  14112.2  117.874
 18.9676  14057.8  117.446
 19.1656  13731  116.666
 19.3636  13766  117.011
 19.5616  13734.8  117.047
 19.7596  13887.4  117.095
 19.9576  14157.7  118.277
 20.1556  14871.4  121.757
 20.3536  13956.2  117.332
 20.5516  13445.8  115.608
 20.7496  13171.9  114.364
 20.9476  13177.1  114.142
 21.1456  12963.8  113.537
 21.3436  12919.9  113.296
 21.5416  12685.8  112.277
 21.7396  12741.8  112.368
 21.9376  12596.3  111.497
 22.1356  12657.7  111.892
 22.3336  12366.1  110.864
 22.5316  12334.3  110.829
 22.7296  12311.9  110.1
 22.9276  12254.9  110.509
 23.1256  12490  111.045
 23.3236  12937.7  113.589
 23.5216  12488.6  111.23
 23.7196  12427.6  110.921
 23.9176  12552.5  111.22
 24.1156  12199.6  110.114
 24.3136  11923.4  109.654
 24.5116  11974  109.409
 24.7096  11528.9  107.173
 24.9076  11515.8  107.149
 25.1056  11231  106.011
 25.3036  11013.5  104.757
 25.5016  10980.1  104.637
 25.6996  10988.4  104.259
 25.8976  10942.3  104.464
 26.0956  10793.5  103.769
 26.2936  10855.6  103.731
 26.4916  11066  104.575
 26.6896  10758.7  103.431
 26.8876  10682.1  102.916
 27.0856  10504.3  102.072
 27.2836  10452.4  101.757
 27.4816  10264.6  100.774
 27.6796  10114.5  100.392
 27.8776  10411.2  101.713
 28.0756  10035.9  100.154
 28.2736  10003.5  99.5782
 28.4716  9894.31  99.0794
 28.6696  9816.73  98.533
 28.8676  9891.68  99.2683
 29.0656  9743.79  98.4978
 29.2636  9772.93  98.357
 29.4616  9251.91  95.9617
 29.6596  9451.68  96.5595
 29.8576  9351.21  96.7262
 30.0556  9233.57  95.9968
 30.2536  9371.57  96.5053
 30.4516  9343.11  96.0002
 30.6496  9490.78  96.4869
 30.8476  9438.7  96.6658
 31.0456  9393.3  96.3898
 31.2436  9492.43  96.1627
 31.4416  9196.96  94.844
 31.6396  9347.24  95.6609
 31.8376  9223.36  94.5174
 32.0356  9259.25  95.3074
 32.2336  9216.99  94.4887
 32.4316  8942.85  93.4753
 32.6296  8917.82  93.1149
 32.8276  8890.63  92.8259
 33.0256  8864.49  92.7546
 33.2236  8913.57  93.1422
 33.4216  8796.19  92.2234
 33.6196  8844.08  92.7732
 33.8176  8795.1  92.6692
 34.0156  8669.44  91.6455
 34.2136  8821.26  92.4612
 34.4116  8500.61  90.9369
 34.6096  8492.23  90.7676
 34.8076  8467.73  91.0541
 35.0056  8514.02  90.9651
 35.2036  8727.22  92.3335
 35.4016  8443.6  90.731
 35.5996  8483.76  90.9834
 35.7976  8325.66  90.4031
 35.9956  8582.08  91.4276
 36.1936  8435.61  90.5007
 36.3916  8288.03  89.9008
 36.5896  8220.62  90.9781
 36.7876  8169.4  89.6256
 36.9856  8004.11  88.7451
 37.1836  7842.88  86.9675
 37.3816  7967.23  88.0131
 37.5796  7976.36  89.7701
 37.7776  8151.12  89.1149
 37.9756  8130.66  88.8851
 38.1736  8198.85  89.4504
 38.3716  8072.8  89.0303
 38.5696  7894.15  88.4034
 38.7676  7894.67  87.9354
 38.9656  7943.81  87.8231
 39.1636  7877.56  87.7054
 39.3616  7944.8  88.0464
 39.5596  7711.56  87.5621
 39.7576  7820.12  87.577
 39.9556  7729.01  86.7003
 40.1536  7945.54  88.1106
 40.3516  7935.57  88.0717
 40.5496  7916.69  88.0059
 40.7476  8004.22  88.7048
 40.9456  8133.51  89.17
 41.1436  8023.79  88.2905
 41.3416  7817.87  87.4831
 41.5396  7854.45  87.4948
 41.7376  7849.67  87.7315
 41.9356  7770.86  87.1468
 42.1336  7975.1  88.4245
 42.3316  7735.55  87.2902
 42.5296  7888.03  87.6602
 42.7276  7829.16  87.5807
 42.9256  7831.92  87.4612
 43.1236  7752.04  87.1226
 43.3216  7772.12  87.0829
 43.5196  7747.39  86.9065
 43.7176  7717.53  87.1289
 43.9156  7567.85  86.205
 44.1136  7563.93  85.7386
 44.3116  7652.39  86.2502
 44.5096  7612.55  86.3378
 44.7076  7521.26  85.745
 44.9056  7647.75  86.3273
 45.1036  7653.47  85.9817
 45.3016  7607.65  86.2229
 45.4996  7616.95  86.2189
 45.6976  7467.34  85.5456
 45.8956  7534.17  85.7442
 46.0936  7537.23  85.7632
 46.2916  7540.13  85.7552
 46.4896  7494.59  85.5398
 46.6876  7508.18  86.3288
 46.8856  7425.54  85.1118
 47.0836  7387.37  85.1417
 47.2816  7306.77  84.5566
 47.4796  7456.62  85.5316
 47.6776  7328.41  85.7452
 47.8756  7418.2  85.4262
 48.0736  7413.66  85.8638
 48.2716  7259.64  84.7829
 48.4696  7377.06  85.0492
 48.6676  7407.95  85.8312
 48.8656  7487.46  86.0107
 49.0636  7408.37  85.4973
 49.2616  7243.8  84.5791
 49.4596  7336.79  84.6753
 49.6576  7307.23  84.7346
 49.8556  7302.01  84.7235
 50.0536  7302.65  85.1801
 50.2516  7232.36  84.8823
 50.4496  7282.4  84.8498
 50.6476  7305.43  84.6566
 50.8456  7305.6  84.7425
 51.0436  7072.72  83.8403
 51.2416  7093.99  83.6306
 51.4396  6979.01  83.3606
 51.6376  6994.99  83.2783
 51.8356  7020.06  83.0458
 52.0336  6922.06  82.9689
 52.2316  7006.29  83.8421
 52.4296  6916.96  82.9966
 52.6276  7016.24  83.7051
 52.8256  7016.61  83.2582
 53.0236  7136.61  84.6148
 53.2216  7036.05  84.0597
 53.4196  6938.23  83.386
 53.6176  6953.7  83.9731
 53.8156  6885.23  83.2367
 54.0136  6618.47  81.7723
 54.2116  6848.18  82.8161
 54.4096  6689.88  81.9236
 54.6076  6544.93  81.3773
 54.8056  6531.05  81.0609
 55.0036  6663.79  82.2946
 55.2016  6660.92  81.7774
 55.3996  6363.25  79.9303
 55.5976  6537.69  81.2204
 55.7956  6497.2  80.7669
 55.9936  6603.81  81.573
 56.1916  6413.81  80.4155
 56.3896  6282.87  79.5779
 56.5876  6333.24  80.4475
 56.7856  6293.01  79.6884
 56.9836  6371.79  79.9524
 57.1816  6481.37  81.0149
 57.3796  6285.47  79.5883
 57.5776  6322.13  79.7064
 57.7756  6227.17  79.7967
 57.9736  6161.76  79.0303
 58.1716  6189.38  79.4645
 58.3696  5955.13  77.7199
 58.5676  6028.86  77.6582
 58.7656  6001.8  78.1645
 58.9636  5925.28  77.6992
 59.1616  6046.53  78.6188
 59.3596  6076.19  78.0676
 59.5576  6106.33  78.3184
 59.7556  5924.09  77.5551
 59.9536  6013.47  78.0371
 60.1516  5949.77  78.4651
 60.1996  0.0000000E+00  0.0000000E+00

File: 17_Db_f00055.xye
# /beamlines/bl04/projects/cycle2025-II/20250340211-lsimonelli/DATA/IS17_D/17_Db_f00055.xye : mythproc.py merge -s 0.006 -l 0.5 -f /beamlines/bl04/inhouse/ff/FlatField/ff_20Nov2024rod8mm60s_17keV.raw -b True -c true -o xye /beamlines/bl04/projects/cycle2025-II/20250340211-lsimonelli/DATA/IS17_D/17_Db_00055.dat
# IsMon = [6784432, 6784400, 6786146]  IsPos = [-1.4999, -2.4885, -3.4988]
# Wave = 0.4962  CalPath /beamlines/bl04/projects/cycle2025-II/20250340211-lsimonelli/DATA/Align/Si_Pos1_25keV_f00001.cal
# Date = 2025-09-24_09:00:11 Dt = 4.8000  Bin = 0.0060  <imon> = 6784993 +/- 816 (Min/Max) 6784400 / 6786146
# icurr 252.5782  mocoIn 1.7228E-05  mocoOut 0.8086  i15 7.10673e+06  imon 6.78499e+06  i7 4.6667  iEMpd_timer 4.8000  iEMpd_1 3.5162E-08  iEMpd_2 7.7534E-08  iEMpd_3 1.7376E-08  iEMpd_4 4.7307E-08  iEMhp_timer 4.8000  iEMhp_1 4.9347E-06  iEMhp_2 -2.4516E-08  iEMhp_3 -2.4010E-08  iEMhp_4 -2.0828E-08
#      9776
 1.7416  70814.2  266.197
 1.9396  49078.6  221.898
 2.1376  36039  190.143
 2.3356  32051.7  178.939
 2.5336  30265.4  174.494
 2.7316  27606.9  166.772
 2.9296  26450.8  163.405
 3.1276  26025.7  161.615
 3.3256  25088.6  158.34
 3.5236  26798.1  163.588
 3.7216  24599.4  157.851
 3.9196  24070.9  155.353
 4.1176  23992.4  154.878
 4.3156  24815.8  157.685
 4.5136  27287.8  164.318
 4.7116  28369.8  168.689
 4.9096  27442  165.34
 5.1076  27304.4  165.515
 5.3056  27276  165.148
 5.5036  27172.8  164.83
 5.7016  27498.3  165.691
 5.8996  28121.3  166.781
 6.0976  29001  170.794
 6.2956  29092.1  170.407
 6.4936  29979.5  172.167
 6.6916  30152.1  173.659
 6.8896  30828.7  175.442
 7.0876  32108.6  179.804
 7.2856  31940.4  178.377
 7.4836  32347.8  178.848
 7.6816  33059.3  181.32
 7.8796  33938.5  183.72
 8.0776  35598.8  189.162
 8.2756  37085.2  191.675
 8.4736  37788.2  193.297
 8.6716  37193.7  192.404
 8.8696  37862.6  194.624
 9.0676  37183.2  192.195
 9.2656  36012.4  189.841
 9.4636  35251.6  186.266
 9.6616  34337.4  184.575
 9.8596  33745.1  182.432
 10.0576  31442.9  176.766
 10.2556  30735.2  175.22
 10.4536  29676.2  171.761
 10.6516  28838  169.538
 10.8496  27793.5  165.842
 11.0476  26803.8  162.834
 11.2456  26040.7  161.083
 11.4436  26682.6  162.209
 11.6416  26820.4  162.983
 11.8396  25132  157.978
 12.0376  24615.9  155.971
 12.2356  24271.1  155.336
 12.4336  24060.4  154.175
 12.6316  23987.3  154.209
 12.8296  24169.3  154.399
 13.0276  24464.6  155.551
 13.2256  24977.5  157.532
 13.4236  24463.6  155.686
 13.6216  24913.8  157.108
 13.8196  27127.9  163.414
 14.0176  24114.6  154.641
 14.2156  23650.7  152.174
 14.4136  22417.5  149.535
 14.6116  22113.5  147.716
 14.8096  21534.3  145.75
 15.0076  20396.9  145.756
 15.2056  19251.7  137.43
 15.4036  18683  136.212
 15.6016  18488.1  134.584
 15.7996  17743.4  132.116
 15.9976  17442.9  133.897
 16.1956  17201.9  130.841
 16.3936  16915.8  128.917
 16.5916  16563.2  128.222
 16.7896  16539.2  128.187
 16.9876  16457  129.34
 17.1856  16338.4  127.233
 17.3836  15919.3  125.502
 17.5816  15436.2  124.056
 17.7796  15120.7  122.718
 17.9776  14716.6  121.839
 18.1756  14793.7  120.905
 18.3736  14478.7  120.082
 18.5716  14415  119.581
 18.7696  14485  119.431
 18.9676  14331.3  118.598
 19.1656  13980.9  117.723
 19.3636  13982  117.922
 19.5616  13856.6  117.554
 19.7596  14200.3  118.407
 19.9576  14505.1  119.714
 20.1556  14547.2  120.416
 20.3536  13968.1  117.374
 20.5516  13559  116.095
 20.7496  13239.8  114.66
 20.9476  13317.3  114.75
 21.1456  12967.2  113.554
 21.3436  12943.7  113.404
 21.5416  12982.4  113.585
 21.7396  12730.8  112.319
 21.9376  12726.7  112.074
 22.1356  12752.9  112.312
 22.3336  12535.4  111.617
 22.5316  12585.2  111.946
 22.7296  12517.4  111.015
 22.9276  12430.3  111.294
 23.1256  12607.8  111.562
 23.3236  12688.7  112.491
 23.5216  12654.1  111.975
 23.7196  12402  110.801
 23.9176  12535.2  111.15
 24.1156  12423  111.114
 24.3136  11947.8  109.774
 24.5116  12086.6  109.916
 24.7096  11718.3  108.057
 24.9076  11643.5  107.742
 25.1056  11310.3  106.383
 25.3036  11227.8  105.772
 25.5016  11150.3  105.445
 25.6996  11135.2  104.952
 25.8976  11150.1  105.455
 26.0956  10919.6  104.377
 26.2936  10927.7  104.073
 26.4916  11232.9  105.376
 26.6896  10915.1  104.179
 26.8876  10741.4  103.2
 27.0856  10662.1  102.837
 27.2836  10424.9  101.623
 27.4816  10442  101.637
 27.6796  10233.2  100.982
 27.8776  10501  102.148
 28.0756  10147.9  100.707
 28.2736  10248.4  100.779
 28.4716  9979.26  99.5091
 28.6696  10119.3  100.044
 28.8676  9921.19  99.414
 29.0656  9751.24  98.5393
 29.2636  9986.22  99.4236
 29.4616  9433.17  96.893
 29.6596  9519.94  96.9083
 29.8576  9367.81  96.81
 30.0556  9508.43  97.4071
 30.2536  9469.09  97.0036
 30.4516  9563.05  97.118
 30.6496  9598.14  97.0289
 30.8476  9694.66  97.9676
 31.0456  9552.19  97.2081
 31.2436  9574.58  96.5783
 31.4416  9386.72  95.8172
 31.6396  9465.54  96.2618
 31.8376  9573.24  96.3318
 32.0356  9307.88  95.5517
 32.2336  9210.67  94.4602
 32.4316  9127.11  94.4364
 32.6296  9109.31  94.1053
 32.8276  9077.45  93.7987
 33.0256  8910.9  92.997
 33.2236  8984  93.5224
 33.4216  8887.65  92.7063
 33.6196  8884.31  92.9901
 33.8176  8906.84  93.271
 34.0156  8727.42  91.953
 34.2136  8760.8  92.1521
 34.4116  8732.71  92.1684
 34.6096  8716.66  91.9607
 34.8076  8460.85  91.0171
 35.0056  8551.01  91.1674
 35.2036  8708.79  92.2383
 35.4016  8485.42  90.9519
 35.5996  8446.33  90.7862
 35.7976  8434.75  90.9933
 35.9956  8668.82  91.8862
 36.1936  8452.15  90.5796
 36.3916  8322.43  90.0841
 36.5896  8410.61  92.0266
 36.7876  8220.69  89.9079
 36.9856  8080  89.1586
 37.1836  8140.78  88.6029
 37.3816  8126.84  88.8891
 37.5796  8264.49  91.381
 37.7776  8171.72  89.227
 37.9756  8164.41  89.0689
 38.1736  8192.83  89.4207
 38.3716  8008.49  88.6699
 38.5696  8121.08  89.6837
 38.7676  8015.17  88.6044
 38.9656  8022.3  88.2627
 39.1636  8034.75  88.5816
 39.3616  8068.56  88.7324
 39.5596  7822.34  88.1962
 39.7576  7866.82  87.8368
 39.9556  8073.22  88.6133
 40.1536  8084.89  88.8771
 40.3516  8036.76  88.6307
 40.5496  8111.56  89.07
 40.7476  8121.43  89.3434
 40.9456  8102.61  89.0038
 41.1436  8092.28  88.6646
 41.3416  7861.73  87.7275
 41.5396  7917.74  87.8484
 41.7376  7873.99  87.8642
 41.9356  7875.92  87.7341
 42.1336  8034.54  88.7601
 42.3316  7956.93  88.5298
 42.5296  7966.83  88.103
 42.7276  7910.29  88.0343
 42.9256  7911.78  87.9101
 43.1236  7907.3  87.9844
 43.3216  7935.15  87.9958
 43.5196  7822.58  87.3199
 43.7176  7840.05  87.8235
 43.9156  7481.74  85.7095
 44.1136  7450.31  85.0898
 44.3116  7704.77  86.5405
 44.5096  7702.93  86.8462
 44.7076  7600.93  86.1968
 44.9056  7665.36  86.4276
 45.1036  7795.63  86.7745
 45.3016  7621.54  86.304
 45.4996  7584.21  86.0359
 45.6976  7577.14  86.1732
 45.8956  7594.44  86.0874
 46.0936  7755.5  87.0005
 46.2916  7579.89  85.9828
 46.4896  7557.66  85.8785
 46.6876  7515.5  86.3765
 46.8856  7485.48  85.4501
 47.0836  7583.29  86.2665
 47.2816  7408.94  85.1472
 47.4796  7498.03  85.7577
 47.6776  7346.04  85.8489
 47.8756  7506.02  85.9327
 48.0736  7496.59  86.3431
 48.2716  7325.8  85.1693
 48.4696  7493.56  85.7196
 48.6676  7346.75  85.4656
 48.8656  7504.27  86.1012
 49.0636  7539.88  86.2612
 49.2616  7303.51  84.9313
 49.4596  7539.77  85.835
 49.6576  7321.5  84.8132
 49.8556  7424.34  85.4328
 50.0536  7338.16  85.3845
 50.2516  7302.48  85.2974
 50.4496  7265.3  84.7525
 50.6476  7379.19  85.0803
 50.8456  7440.32  85.5192
 51.0436  7220.37  84.7068
 51.2416  7087.06  83.588
 51.4396  6941.21  83.1314
 51.6376  7041.16  83.5478
 51.8356  7031.92  83.1063
 52.0336  7055.39  83.7525
 52.2316  7034.01  84.0055
 52.4296  7063.08  83.8721
 52.6276  6915.31  83.0968
 52.8256  7120.66  83.8722
 53.0236  7139.96  84.6466
 53.2216  7035.27  84.0652
 53.4196  7055.92  84.0967
 53.6176  7070.79  84.6974
 53.8156  6919.57  83.4475
 54.0136  6708.56  82.3331
 54.2116  6997.99  83.7206
 54.4096  6678.78  81.8608
 54.6076  6663.45  82.1008
 54.8056  6664.86  81.8839
 55.0036  6590.61  81.8517
 55.2016  6826.72  82.7851
 55.3996  6442.02  80.4279
 55.5976  6508.31  81.034
 55.7956  6585.82  81.3169
 55.9936  6619.99  81.647
 56.1916  6525.07  81.1172
 56.3896  6340.25  79.9289
 56.5876  6451.24  81.1936
 56.7856  6344.17  80.018
 56.9836  6419.24  80.2533
 57.1816  6508.83  81.1708
 57.3796  6207.47  79.0891
 57.5776  6358.99  79.9357
 57.7756  6329.86  80.4429
 57.9736  6225.98  79.4302
 58.1716  6284.35  80.0791
 58.3696  6008.83  78.0639
 58.5676  6114.71  78.2164
 58.7656  6000.96  78.1611
 58.9636  6070.69  78.6446
 59.1616  6092.44  78.9164
 59.3596  6113.57  78.3033
 59.5576  6265.14  79.3276
 59.7556  5844.9  77.0323
 59.9536  6072.28  78.415
 60.1516  5935.82  78.3704
 60.1996  0.0000000E+00  0.0000000E+00