Folder: echemistpy/docs/examples/XRD/IS17_D/Data/IS17_D (part 20)

File: 17_Db_f00019.xye
# /beamlines/bl04/projects/cycle2025-II/20250340211-lsimonelli/DATA/IS17_D/17_Db_f00019.xye : mythproc.py merge -s 0.006 -l 0.5 -f /beamlines/bl04/inhouse/ff/FlatField/ff_20Nov2024rod8mm60s_17keV.raw -b True -c true -o xye /beamlines/bl04/projects/cycle2025-II/20250340211-lsimonelli/DATA/IS17_D/17_Db_00019.dat
# IsMon = [6776673, 6778008, 6775945]  IsPos = [-1.5000, -2.4885, -3.4986]
# Wave = 0.4962  CalPath /beamlines/bl04/projects/cycle2025-II/20250340211-lsimonelli/DATA/Align/Si_Pos1_25keV_f00001.cal
# Date = 2025-09-23_23:00:17 Dt = 4.8000  Bin = 0.0060  <imon> = 6776875 +/- 854 (Min/Max) 6775945 / 6778008
# icurr 252.5057  mocoIn 1.7223E-05  mocoOut 0.8082  i15 7.09333e+06  imon 6.77688e+06  i7 5.0000  iEMpd_timer 4.8000  iEMpd_1 3.5093E-08  iEMpd_2 7.8610E-08  iEMpd_3 1.6909E-08  iEMpd_4 4.7384E-08  iEMhp_timer 4.8000  iEMhp_1 4.9323E-06  iEMhp_2 -2.4980E-08  iEMhp_3 -2.3706E-08  iEMhp_4 -2.1073E-08
#      9776
 1.7416  68685.6  262.159
 1.9396  47659.9  218.66
 2.1376  34214.9  185.263
 2.3356  30482.3  174.499
 2.5336  30585.9  175.41
 2.7316  26422.6  163.139
 2.9296  24995  158.829
 3.1276  24595.6  157.101
 3.3256  23650.5  153.72
 3.5236  25594.8  159.862
 3.7216  23064.3  152.854
 3.9196  22963.1  151.736
 4.1176  22734.7  150.763
 4.3156  23402.1  153.132
 4.5136  26568.4  162.13
 4.7116  27236.6  165.287
 4.9096  26500.8  162.486
 5.1076  26140.3  161.945
 5.3056  26250.1  161.898
 5.5036  25671.9  160.148
 5.7016  26105.3  161.441
 5.8996  26635.9  162.316
 6.0976  27420.1  166.069
 6.2956  27648.2  166.124
 6.4936  28434.6  167.675
 6.6916  28725.2  169.5
 6.8896  29779.2  172.432
 7.0876  30719.1  175.785
 7.2856  30260.7  173.619
 7.4836  30744.6  174.363
 7.6816  31531.9  177.089
 7.8796  32102.4  178.69
 8.0776  35636.8  189.265
 8.2756  35980.3  188.807
 8.4736  36116.8  188.975
 8.6716  35397.7  187.692
 8.8696  36866.4  192.061
 9.0676  35534.6  187.889
 9.2656  34120  184.797
 9.4636  32888.9  179.931
 9.6616  32339.6  179.132
 9.8596  31785.4  177.032
 10.0576  29819.2  172.123
 10.2556  29025.7  170.26
 10.4536  31403.2  176.679
 10.6516  32652.6  180.386
 10.8496  26547.7  162.085
 11.0476  25913.3  160.103
 11.2456  27999  167.008
 11.4436  25523.9  158.648
 11.6416  25019.6  157.414
 11.8396  24022.2  154.439
 12.0376  23135.1  151.198
 12.2356  24364.2  155.629
 12.4336  23581.8  152.628
 12.6316  22836.8  150.455
 12.8296  23151.6  151.1
 13.0276  23276.3  151.725
 13.2256  23249.8  151.992
 13.4236  23359.3  152.123
 13.6216  23760.9  153.426
 13.8196  26490  161.426
 14.0176  22807.8  150.39
 14.2156  22609.4  148.769
 14.4136  21245.2  145.572
 14.6116  20957.5  143.801
 14.8096  20179.8  141.101
 15.0076  19562.6  142.736
 15.2056  18459  134.574
 15.4036  17815.8  133.014
 15.6016  17432.7  130.688
 15.7996  16880.8  128.872
 15.9976  16688  130.981
 16.1956  16381.4  127.677
 16.3936  16114.4  125.846
 16.5916  15934.8  125.767
 16.7896  15941.8  125.854
 16.9876  15657.6  126.152
 17.1856  15511.1  123.959
 17.3836  14813.7  121.056
 17.5816  14734.6  121.201
 17.7796  14645  120.758
 17.9776  14501.9  120.953
 18.1756  15382.2  123.287
 18.3736  15336.6  123.594
 18.5716  13840.3  117.162
 18.7696  14052.5  117.628
 18.9676  13669.2  115.829
 19.1656  13409.3  115.296
 19.3636  13306  115.03
 19.5616  13382.2  115.528
 19.7596  13530.8  115.583
 19.9576  14009.8  117.649
 20.1556  13275.1  115.034
 20.3536  13051.7  113.456
 20.5516  12664.1  112.198
 20.7496  12663.1  112.041
 20.9476  12975.6  113.261
 21.1456  12813.3  112.881
 21.3436  12519.6  111.521
 21.5416  12395.9  110.989
 21.7396  12143.4  109.689
 21.9376  12224.7  109.84
 22.1356  12464.8  111.064
 22.3336  12122.8  109.766
 22.5316  12015.9  109.39
 22.7296  11946.6  108.455
 22.9276  11814.5  108.504
 23.1256  12176.4  109.643
 23.3236  12186.5  110.25
 23.5216  12095.1  109.48
 23.7196  12255.9  110.371
 23.9176  12117.5  109.278
 24.1156  11784.3  108.224
 24.3136  11765.8  108.929
 24.5116  11689.1  108.096
 24.7096  11445.9  106.79
 24.9076  11367  106.444
 25.1056  11117.1  105.463
 25.3036  10626.9  102.895
 25.5016  10764.5  103.601
 25.6996  10826  103.485
 25.8976  10922.8  104.381
 26.0956  10705.3  103.35
 26.2936  10557.6  102.291
 26.4916  10886.7  103.74
 26.6896  10484.6  102.089
 26.8876  10380.3  101.44
 27.0856  10354.5  101.345
 27.2836  10088.1  100.125
 27.4816  10052.2  99.7238
 27.6796  10032  99.9826
 27.8776  10276.5  101.059
 28.0756  9872.17  99.3316
 28.2736  9936.22  99.2419
 28.4716  9589.09  97.538
 28.6696  9677.63  97.8403
 28.8676  9483.81  97.1991
 29.0656  9421.36  96.855
 29.2636  9535.77  97.1591
 29.4616  9231.49  95.8538
 29.6596  9263.77  95.5961
 29.8576  8944.82  94.6003
 30.0556  9190.92  95.7721
 30.2536  9153.41  95.3706
 30.4516  9314.09  95.858
 30.6496  9261.55  95.3126
 30.8476  9175.47  95.3123
 31.0456  9257.37  95.7007
 31.2436  9187.1  94.6111
 31.4416  9016.69  93.9014
 31.6396  9369.63  95.7629
 31.8376  9079.88  93.7853
 32.0356  9058.65  94.2479
 32.2336  8867.64  92.6784
 32.4316  8657.8  91.9677
 32.6296  8582.59  91.3489
 32.8276  8683.2  91.7382
 33.0256  8558.08  91.1348
 33.2236  8655.83  91.7826
 33.4216  8531.59  90.8343
 33.6196  8487.21  90.8778
 33.8176  8593.17  91.6107
 34.0156  8355.28  89.969
 34.2136  8598.04  91.2918
 34.4116  8251.41  89.5951
 34.6096  8375.81  90.1454
 34.8076  8141.82  89.2853
 35.0056  8348.83  90.0927
 35.2036  8482.23  91.0267
 35.4016  8193.08  89.3749
 35.5996  8153.07  89.1923
 35.7976  8077.82  89.0479
 35.9956  8238.21  89.5779
 36.1936  8296.21  89.7551
 36.3916  8066.01  88.6878
 36.5896  8284.1  91.3322
 36.7876  7759.69  87.3454
 36.9856  7725.34  87.1822
 37.1836  7842.57  86.957
 37.3816  7679.01  86.4102
 37.5796  7895.35  89.3196
 37.7776  7886.97  87.6609
 37.9756  7886.17  87.5459
 38.1736  8028.13  88.506
 38.3716  7919.92  88.1799
 38.5696  7635.41  86.9548
 38.7676  7685.76  86.758
 38.9656  7885.03  87.5085
 39.1636  7761.81  87.0569
 39.3616  7743.22  86.9166
 39.5596  7584.27  86.8474
 39.7576  7590.43  86.2771
 39.9556  7680.46  86.4344
 40.1536  7856.68  87.6171
 40.3516  7721.71  86.9489
 40.5496  7795.59  87.3289
 40.7476  7856.61  87.8791
 40.9456  7810.9  87.3819
 41.1436  7868.82  87.4307
 41.3416  7651.14  86.5454
 41.5396  7639.73  86.293
 41.7376  7658.41  86.6508
 41.9356  7543.36  85.8522
 42.1336  7795.97  87.4269
 42.3316  7656.65  86.8452
 42.5296  7685.2  86.5304
 42.7276  7665.81  86.6616
 42.9256  7610.38  86.2172
 43.1236  7599.67  86.262
 43.3216  7557.72  85.8685
 43.5196  7569.81  85.9003
 43.7176  7486.55  85.8222
 43.9156  7254.59  84.4032
 44.1136  7317.67  84.3294
 44.3116  7373.79  84.6668
 44.5096  7194.49  83.9313
 44.7076  7309.75  84.5298
 44.9056  7477.33  85.3678
 45.1036  7445.63  84.8096
 45.3016  7285.2  84.3855
 45.4996  7284.06  84.3189
 45.6976  7284.19  84.4964
 45.8956  7309.43  84.4474
 46.0936  7423.51  84.8661
 46.2916  7279.34  84.249
 46.4896  7369.34  84.8195
 46.6876  7388.52  85.6253
 46.8856  7205.45  83.9534
 47.0836  7263.92  84.4203
 47.2816  7059.65  83.1081
 47.4796  7173.12  83.8874
 47.6776  7118.01  84.5022
 47.8756  7260.17  84.5145
 48.0736  7253.91  84.9074
 48.2716  7147.7  84.1248
 48.4696  7235.13  84.225
 48.6676  7189.11  84.5527
 48.8656  7189.36  84.2732
 49.0636  7324.27  85.0068
 49.2616  7028.29  83.3141
 49.4596  7123.27  83.4226
 49.6576  7117.51  83.6308
 49.8556  7154.38  83.8629
 50.0536  7136.01  84.1993
 50.2516  7108.49  84.1558
 50.4496  7091.52  83.7312
 50.6476  7085.03  83.3715
 50.8456  7077.1  83.4072
 51.0436  6796.35  82.1841
 51.2416  6953.01  82.7926
 51.4396  6672.97  81.5116
 51.6376  6934.79  82.9125
 51.8356  6795.4  81.6907
 52.0336  6827.08  82.404
 52.2316  6727.51  82.1608
 52.4296  6695.57  81.6663
 52.6276  6724.32  81.9537
 52.8256  6854.34  82.2978
 53.0236  6863.37  82.9885
 53.2216  6796.71  82.5906
 53.4196  6758.35  82.2729
 53.6176  6774.85  82.9012
 53.8156  6683.76  81.9944
 54.0136  6388.69  80.355
 54.2116  6558.98  81.0532
 54.4096  6423.52  80.2689
 54.6076  6308.15  79.8873
 54.8056  6363.68  80.0175
 55.0036  6476.25  80.978
 55.2016  6339  79.7068
 55.3996  6203.22  78.9151
 55.5976  6335.52  79.9552
 55.7956  6246.09  79.1879
 55.9936  6394.52  80.253
 56.1916  6158.55  78.8008
 56.3896  6150.14  78.721
 56.5876  6088.84  78.8664
 56.7856  6081.14  78.3392
 56.9836  6239.97  79.1184
 57.1816  6255.47  79.5678
 57.3796  6024.38  77.8857
 57.5776  6138.38  78.5397
 57.7756  6027.42  78.501
 57.9736  6149.73  78.9412
 58.1716  5934.4  77.818
 58.3696  5825.36  76.8635
 58.5676  5794.52  76.138
 58.7656  5776.1  76.6838
 58.9636  5816.53  76.9766
 59.1616  5773.6  76.8248
 59.3596  5773.13  76.1055
 59.5576  5840.97  76.6069
 59.7556  5630.99  75.6212
 59.9536  5886.52  77.2181
 60.1516  5734.7  77.043
 60.1996  0.0000000E+00  0.0000000E+00

File: 17_Db_f00021.xye
# /beamlines/bl04/projects/cycle2025-II/20250340211-lsimonelli/DATA/IS17_D/17_Db_f00021.xye : mythproc.py merge -s 0.006 -l 0.5 -f /beamlines/bl04/inhouse/ff/FlatField/ff_20Nov2024rod8mm60s_17keV.raw -b True -c true -o xye /beamlines/bl04/projects/cycle2025-II/20250340211-lsimonelli/DATA/IS17_D/17_Db_00021.dat
# IsMon = [6744136, 6741282, 6746161]  IsPos = [-1.5000, -2.4885, -3.4986]
# Wave = 0.4962  CalPath /beamlines/bl04/projects/cycle2025-II/20250340211-lsimonelli/DATA/Align/Si_Pos1_25keV_f00001.cal
# Date = 2025-09-23_23:33:21 Dt = 4.8000  Bin = 0.0060  <imon> = 6743860 +/- 2001 (Min/Max) 6741282 / 6746161
# icurr 249.3490  mocoIn 1.7017E-05  mocoOut 0.7981  i15 7.06173e+06  imon 6.74386e+06  i7 7.3333  iEMpd_timer 4.8000  iEMpd_1 3.6639E-08  iEMpd_2 7.7929E-08  iEMpd_3 1.7705E-08  iEMpd_4 4.8313E-08  iEMhp_timer 4.8000  iEMhp_1 4.8726E-06  iEMhp_2 -2.4041E-08  iEMhp_3 -2.3039E-08  iEMhp_4 -1.9754E-08
#      9776
 1.7416  69128.5  262.993
 1.9396  47290.9  217.811
 2.1376  34062  184.843
 2.3356  30379  174.197
 2.5336  29664.3  172.741
 2.7316  26205.3  162.491
 2.9296  24881.4  158.487
 3.1276  24275.2  156.084
 3.3256  23625.1  153.662
 3.5236  25230.2  158.741
 3.7216  23159.7  153.165
 3.9196  22884.8  151.465
 4.1176  22563.1  150.185
 4.3156  23555  153.623
 4.5136  26154.5  160.876
 4.7116  27171.8  165.093
 4.9096  26344.5  161.996
 5.1076  26005.5  161.527
 5.3056  26423.2  162.434
 5.5036  25591.1  159.887
 5.7016  26075.6  161.346
 5.8996  26547.8  162.046
 6.0976  27509.9  166.339
 6.2956  27481.3  165.62
 6.4936  28383  167.515
 6.6916  28591.7  169.108
 6.8896  29586.7  171.877
 7.0876  30843.9  176.136
 7.2856  30055.7  173.033
 7.4836  30549.6  173.802
 7.6816  31076.5  175.787
 7.8796  32255.8  179.125
 8.0776  34405.5  185.97
 8.2756  35316.4  187.049
 8.4736  35539.6  187.459
 8.6716  34853.3  186.262
 8.8696  36074.3  189.959
 9.0676  35323  187.308
 9.2656  33908.2  184.199
 9.4636  32511.5  178.865
 9.6616  32011  178.195
 9.8596  31547.9  176.388
 10.0576  29475.1  171.153
 10.2556  28913.5  169.947
 10.4536  30309.9  173.592
 10.6516  31015.4  175.818
 10.8496  26254.9  161.176
 11.0476  25476.8  158.754
 11.2456  26702.9  163.117
 11.4436  25135.5  157.443
 11.6416  24756.8  156.581
 11.8396  23586.4  153.035
 12.0376  22984.1  150.713
 12.2356  23505.3  152.862
 12.4336  23162  151.272
 12.6316  22654.7  149.847
 12.8296  22827.6  150.058
 13.0276  22960.7  150.696
 13.2256  23143.6  151.647
 13.4236  23015  151.002
 13.6216  23410.6  152.285
 13.8196  26078.2  160.183
 14.0176  22558.4  149.564
 14.2156  22249.4  147.596
 14.4136  21147.5  145.241
 14.6116  20893.5  143.575
 14.8096  20059.5  140.663
 15.0076  19303  141.799
 15.2056  18282.3  133.929
 15.4036  17588  132.169
 15.6016  17262.7  130.051
 15.7996  16738.6  128.312
 15.9976  16636.2  130.762
 16.1956  16267.3  127.237
 16.3936  16001.9  125.374
 16.5916  15639.8  124.588
 16.7896  15851.5  125.486
 16.9876  15484.6  125.46
 17.1856  15113.8  122.385
 17.3836  14830.6  121.137
 17.5816  14516.4  120.318
 17.7796  14428.7  119.884
 17.9776  14314.9  120.156
 18.1756  14746.2  120.712
 18.3736  14885.2  121.759
 18.5716  13820.3  117.087
 18.7696  13912.9  117.049
 18.9676  13527.1  115.211
 19.1656  13221.7  114.477
 19.3636  13131  114.281
 19.5616  13107.2  114.334
 19.7596  13481  115.371
 19.9576  13803.6  116.789
 20.1556  13283  115.064
 20.3536  12895.7  112.782
 20.5516  12774.4  112.682
 20.7496  12608.1  111.802
 20.9476  12814.1  112.554
 21.1456  12716.7  112.448
 21.3436  12352.2  110.779
 21.5416  12275.3  110.448
 21.7396  12095.4  109.48
 21.9376  12011.7  108.883
 22.1356  12256.9  110.135
 22.3336  11845.7  108.504
 22.5316  11819.8  108.49
 22.7296  11680.5  107.242
 22.9276  11612.2  107.573
 23.1256  12031.4  108.978
 23.3236  11986.2  109.325
 23.5216  12123.5  109.591
 23.7196  11995.8  109.179
 23.9176  11859.7  108.1
 24.1156  11766.2  108.11
 24.3136  11494.7  107.675
 24.5116  11594.7  107.673
 24.7096  11272.6  105.988
 24.9076  11026  104.845
 25.1056  10856.5  104.235
 25.3036  10624.3  102.886
 25.5016  10706.3  103.324
 25.6996  10625.3  102.52
 25.8976  10714.9  103.373
 26.0956  10534.9  102.512
 26.2936  10527.7  102.154
 26.4916  10899.4  103.798
 26.6896  10372.5  101.556
 26.8876  10224.1  100.681
 27.0856  10165.2  100.411
 27.2836  10015.6  99.7561
 27.4816  9942.73  99.179
 27.6796  9949.23  99.5706
 27.8776  10247.3  100.909
 28.0756  9750.28  98.71
 28.2736  9664.13  97.8664
 28.4716  9510.08  97.1397
 28.6696  9583.77  97.3614
 28.8676  9477.32  97.1644
 29.0656  9323.04  96.3467
 29.2636  9383.16  96.3726
 29.4616  8975.65  94.5177
 29.6596  8960.98  94.0232
 29.8576  8928.49  94.5149
 30.0556  8938.44  94.4319
 30.2536  8984.48  94.49
 30.4516  9148.63  94.9877
 30.6496  9051.88  94.2246
 30.8476  9098.78  94.8998
 31.0456  9103.1  94.8874
 31.2436  9094.15  94.1222
 31.4416  8863.34  93.1102
 31.6396  9114.82  94.4573
 31.8376  8987.6  93.3339
 32.0356  8932.83  93.6115
 32.2336  8933.19  93.0233
 32.4316  8636.38  91.8648
 32.6296  8609.82  91.4897
 32.8276  8646.06  91.5434
 33.0256  8540.35  91.0392
 33.2236  8629.52  91.6568
 33.4216  8476.04  90.5201
 33.6196  8458.27  90.725
 33.8176  8406  90.6108
 34.0156  8365.53  90.0195
 34.2136  8340.08  89.9011
 34.4116  8203.88  89.3373
 34.6096  8375.1  90.1388
 34.8076  8158.87  89.3774
 35.0056  8203.69  89.2967
 35.2036  8385.49  90.5087
 35.4016  8016.62  88.415
 35.5996  8002.76  88.3675
 35.7976  8039.44  88.8311
 35.9956  8316.33  89.9997
 36.1936  8167.54  89.0391
 36.3916  7893.85  87.7346
 36.5896  8138.94  90.5268
 36.7876  7642.7  86.6927
 36.9856  7649.2  86.7543
 37.1836  7625.43  85.7497
 37.3816  7743.36  86.7629
 37.5796  7751.33  88.4982
 37.7776  7832.23  87.3403
 37.9756  7832.83  87.2327
 38.1736  7911.98  87.8683
 38.3716  7732.86  87.1276
 38.5696  7699.23  87.316
 38.7676  7678.17  86.724
 38.9656  7642.45  86.1522
 39.1636  7635.76  86.3625
 39.3616  7638.15  86.338
 39.5596  7538.55  86.5786
 39.7576  7461.54  85.5442
 39.9556  7601.88  85.9932
 40.1536  7749.49  87.0136
 40.3516  7555.65  86.0083
 40.5496  7567.03  86.0421
 40.7476  7817.47  87.6608
 40.9456  7654.91  86.5009
 41.1436  7747.51  86.7578
 41.3416  7556.45  86.0074
 41.5396  7635.55  86.2682
 41.7376  7585.89  86.2392
 41.9356  7583.78  86.0943
 42.1336  7699.69  86.8848
 42.3316  7501.35  85.9639
 42.5296  7611.01  86.111
 42.7276  7509.55  85.7727
 42.9256  7660.48  86.4993
 43.1236  7525.18  85.8343
 43.3216  7502.73  85.562
 43.5196  7365.19  84.7326
 43.7176  7430.26  85.4945
 43.9156  7195.21  84.0583
 44.1136  7120.94  83.1897
 44.3116  7208.18  83.7023
 44.5096  7238.31  84.1888
 44.7076  7257.58  84.2305
 44.9056  7369.4  84.7374
 45.1036  7413.26  84.6093
 45.3016  7233.63  84.0791
 45.4996  7201.62  83.8316
 45.6976  7170.77  83.8241
 45.8956  7194.26  83.7946
 46.0936  7275.94  84.0245
 46.2916  7279.08  84.2625
 46.4896  7280.76  84.3078
 46.6876  7181.64  84.4417
 46.8856  7076.41  83.1968
 47.0836  7083.22  83.3694
 47.2816  7114.96  83.4416
 47.4796  7145.72  83.7121
 47.6776  7044.27  84.0601
 47.8756  7076.36  83.4327
 48.0736  7172.39  84.429
 48.2716  7053.21  83.5667
 48.4696  7211.25  84.0901
 48.6676  7036.32  83.6439
 48.8656  7153.23  84.0655
 49.0636  7188.56  84.2144
 49.2616  7012.82  83.2245
 49.4596  7026.88  82.8527
 49.6576  6986.9  82.8573
 49.8556  7057.56  83.2949
 50.0536  6997.98  83.3775
 50.2516  6988.74  83.4409
 50.4496  7021.49  83.3189
 50.6476  7032.44  83.0535
 50.8456  6993.06  82.9038
 51.0436  6748.21  81.8949
 51.2416  6789.99  81.8164
 51.4396  6596.55  81.0448
 51.6376  6877.44  82.5784
 51.8356  6769.16  81.552
 52.0336  6694.82  81.5944
 52.2316  6725.37  82.1381
 52.4296  6749.68  81.9842
 52.6276  6614.3  81.269
 52.8256  6847.03  82.2418
 53.0236  6777.03  82.4728
 53.2216  6721.76  82.1503
 53.4196  6712.37  82.0253
 53.6176  6659.3  82.199
 53.8156  6701.91  82.1299
 54.0136  6428.77  80.5901
 54.2116  6508.29  80.742
 54.4096  6341.81  79.7743
 54.6076  6370.61  80.2831
 54.8056  6288.5  79.55
 55.0036  6415.97  80.6198
 55.2016  6282.73  79.3602
 55.3996  6179.18  78.7584
 55.5976  6139.41  78.6989
 55.7956  6246.75  79.191
 55.9936  6323.84  79.8077
 56.1916  6273.5  79.5232
 56.3896  6087.03  78.3268
 56.5876  6021.11  78.4306
 56.7856  6125.36  78.6228
 56.9836  6148.84  78.5432
 57.1816  6161.67  78.9775
 57.3796  5874.61  76.921
 57.5776  6035.55  77.8794
 57.7756  5912.39  77.7446
 57.9736  6006.5  78.0264
 58.1716  5857.3  77.3089
 58.3696  5749.18  76.362
 58.5676  5727.11  75.7129
 58.7656  5718.83  76.303
 58.9636  5730.68  76.4028
 59.1616  5733.85  76.5601
 59.3596  5760.9  76.0067
 59.5576  5742.64  75.9412
 59.7556  5675.56  75.9017
 59.9536  5743.54  76.2563
 60.1516  5844.97  77.7616
 60.1996  0.0000000E+00  0.0000000E+00