Folder: echemistpy/docs/examples/XRD/IS17_D/Data/IS17_D (part 16)

File: 17_Da_f00143.xye
# /beamlines/bl04/projects/cycle2025-II/20250340211-lsimonelli/DATA/IS17_D/17_Da_f00143.xye : mythproc.py merge -s 0.006 -l 0.5 -f /beamlines/bl04/inhouse/ff/FlatField/ff_20Nov2024rod8mm60s_17keV.raw -b True -c true -o xye /beamlines/bl04/projects/cycle2025-II/20250340211-lsimonelli/DATA/IS17_D/17_Da_00143.dat
# IsMon = [6771357, 6773816, 6769939]  IsPos = [-1.4999, -2.4884, -3.4988]
# Wave = 0.4962  CalPath /beamlines/bl04/projects/cycle2025-II/20250340211-lsimonelli/DATA/Align/Si_Pos1_25keV_f00001.cal
# Date = 2025-09-25_09:25:44 Dt = 4.8000  Bin = 0.0060  <imon> = 6771704 +/- 1602 (Min/Max) 6769939 / 6773816
# icurr 251.2811  mocoIn 1.7148E-05  mocoOut 0.8047  i15 7.09031e+06  imon 6.7717e+06  i7 4.3333  iEMpd_timer 4.8000  iEMpd_1 3.6315E-08  iEMpd_2 7.8822E-08  iEMpd_3 1.9312E-08  iEMpd_4 4.9852E-08  iEMhp_timer 4.8000  iEMhp_1 4.9094E-06  iEMhp_2 -2.7121E-08  iEMhp_3 -2.3431E-08  iEMhp_4 -2.2205E-08
#      9776
 1.7416  70352.2  265.323
 1.9396  46082.9  215.011
 2.1376  32465.8  180.468
 2.3356  29169.4  170.701
 2.5336  27100.2  165.114
 2.7316  25300.6  159.633
 2.9296  24461.3  157.13
 3.1276  24031.2  155.296
 3.3256  23612.2  153.596
 3.5236  25395.1  159.092
 3.7216  23313  153.682
 3.9196  22839.3  151.35
 4.1176  22795.4  150.971
 4.3156  24131.9  155.503
 4.5136  26503.7  161.932
 4.7116  27369.6  165.702
 4.9096  26840.4  163.533
 5.1076  26557.7  163.239
 5.3056  26892.4  164.002
 5.5036  26931.8  164.005
 5.7016  27414.7  165.442
 5.8996  27846.3  165.954
 6.0976  28719.5  169.983
 6.2956  28982.8  170.094
 6.4936  29695.2  171.359
 6.6916  29976.9  173.174
 6.8896  30751.7  175.25
 7.0876  31888.7  179.192
 7.2856  31710.6  177.748
 7.4836  32199.7  178.449
 7.6816  33155.2  181.613
 7.8796  34500.9  185.258
 8.0776  36412.8  191.314
 8.2756  38136.3  194.383
 8.4736  38530.9  195.182
 8.6716  37944.8  194.326
 8.8696  38088.3  195.197
 9.0676  37147  192.13
 9.2656  36111.2  190.116
 9.4636  35663.6  187.337
 9.6616  34984.9  186.336
 9.8596  33561  181.93
 10.0576  31830.2  177.844
 10.2556  30738.4  175.206
 10.4536  30406.9  173.861
 10.6516  30625.2  174.69
 10.8496  28469.9  167.853
 11.0476  27926.9  166.256
 11.2456  27628.7  165.91
 11.4436  27451.9  164.536
 11.6416  26689.7  162.599
 11.8396  25243.1  158.338
 12.0376  25057  157.395
 12.2356  24770  156.889
 12.4336  24587.7  155.851
 12.6316  24297.2  155.204
 12.8296  24463.7  155.369
 13.0276  25134.6  157.667
 13.2256  25056.4  157.788
 13.4236  24939.2  157.19
 13.6216  24848.8  156.918
 13.8196  25078  157.405
 14.0176  24293.6  155.213
 14.2156  23908.4  153.013
 14.4136  22615.4  150.195
 14.6116  22401.4  148.686
 14.8096  21901.6  147.01
 15.0076  20498.5  146.051
 15.2056  20301.1  141.129
 15.4036  19259.7  138.302
 15.6016  19051.7  136.62
 15.7996  18407.9  134.579
 15.9976  17702.2  134.927
 16.1956  17173.3  130.769
 16.3936  16809.1  128.548
 16.5916  16850.2  129.345
 16.7896  16598.6  128.436
 16.9876  16523.7  129.615
 17.1856  16121.2  126.372
 17.3836  15837.4  125.15
 17.5816  15489.4  124.267
 17.7796  15253.1  123.244
 17.9776  15110.5  123.48
 18.1756  15430.7  123.459
 18.3736  15186.7  122.991
 18.5716  14998.9  121.983
 18.7696  14989.6  121.506
 18.9676  14552  119.523
 19.1656  14507.3  119.906
 19.3636  14369.8  119.539
 19.5616  14264.8  119.278
 19.7596  14383  119.162
 19.9576  14809.1  120.967
 20.1556  14316.6  119.473
 20.3536  13786.1  116.612
 20.5516  13628.5  116.399
 20.7496  13364.3  115.204
 20.9476  13394  115.081
 21.1456  13498.8  115.859
 21.3436  13252.7  114.756
 21.5416  13166.3  114.372
 21.7396  12998.5  113.495
 21.9376  12904.2  112.847
 22.1356  13023.8  113.478
 22.3336  12940.6  113.417
 22.5316  13020.3  113.853
 22.7296  12870.1  112.556
 22.9276  12905.1  113.393
 23.1256  13106.4  113.754
 23.3236  12863.2  113.261
 23.5216  12800.7  112.636
 23.7196  12634.1  111.843
 23.9176  12503.1  111.014
 24.1156  12291.3  110.547
 24.3136  12106.5  110.495
 24.5116  11995.4  109.512
 24.7096  11683.9  107.898
 24.9076  11507.5  107.105
 25.1056  11379.2  106.974
 25.3036  11277.9  106.007
 25.5016  11129.4  105.341
 25.6996  11301.8  105.736
 25.8976  11195.5  105.673
 26.0956  11222.7  105.826
 26.2936  11194.3  105.326
 26.4916  11279.5  105.607
 26.6896  10917.2  104.199
 26.8876  10784.1  103.412
 27.0856  10827.7  103.68
 27.2836  10571.5  102.331
 27.4816  10564.7  102.233
 27.6796  10424.6  101.933
 27.8776  10437.1  101.85
 28.0756  10347.3  101.697
 28.2736  10382.2  101.448
 28.4716  10061.5  99.9191
 28.6696  10083.7  99.8694
 28.8676  9922.28  99.4176
 29.0656  9882.97  99.2034
 29.2636  9873.7  98.945
 29.4616  9968.99  99.6091
 29.6596  9884.43  98.7465
 29.8576  9736.1  98.6949
 30.0556  9661.89  98.2001
 30.2536  9849.76  98.9356
 30.4516  9684.68  97.7625
 30.6496  9786.5  97.9946
 30.8476  9613.19  97.5724
 31.0456  9458.53  96.7399
 31.2436  9387.89  95.6477
 31.4416  9382  95.7838
 31.6396  9610.62  96.9913
 31.8376  9563.52  96.2943
 32.0356  9241.05  95.2136
 32.2336  9207.73  94.4393
 32.4316  9082.33  94.2002
 32.6296  9040.83  93.8193
 32.8276  9187.86  94.3659
 33.0256  9049.43  93.7242
 33.2236  9030.91  93.7707
 33.4216  9110.04  93.875
 33.6196  9050.88  93.8571
 33.8176  9090.06  94.2284
 34.0156  8987.79  93.3039
 34.2136  8790.05  92.3137
 34.4116  8783.16  92.4356
 34.6096  8770.32  92.2385
 34.8076  8698.62  92.2731
 35.0056  8714.06  92.0445
 35.2036  8706.12  92.2116
 35.4016  8706.35  92.1386
 35.5996  8598.27  91.6008
 35.7976  8497.53  91.3364
 35.9956  8463.76  90.8014
 36.1936  8397.16  90.3037
 36.3916  8402.49  90.5099
 36.5896  8499.38  92.0056
 36.7876  8415.02  90.9619
 36.9856  8375.77  90.7772
 37.1836  8381.15  89.9025
 37.3816  8436.61  90.573
 37.5796  8271.28  91.4183
 37.7776  8144.17  89.0814
 37.9756  8157.35  89.0387
 38.1736  8334.09  90.1983
 38.3716  8267.09  90.1139
 38.5696  8160.06  89.8987
 38.7676  7934.73  88.1501
 38.9656  7997.53  88.1332
 39.1636  7943.08  88.0992
 39.3616  8071.32  88.7285
 39.5596  7986.89  89.1283
 39.7576  7923.82  88.1537
 39.9556  7951.28  87.9386
 40.1536  8157.96  89.2832
 40.3516  8127.76  89.1284
 40.5496  8102.07  89.2499
 40.7476  8086.39  89.1634
 40.9456  8297.54  90.0668
 41.1436  8100.39  88.7114
 41.3416  8049.04  88.7684
 41.5396  7874.82  87.6107
 41.7376  7920.33  88.1255
 41.9356  7978.53  88.3106
 42.1336  8007.77  88.6175
 42.3316  7946.14  88.4774
 42.5296  7937.44  87.9369
 42.7276  7964.68  88.3361
 42.9256  7963.44  88.1924
 43.1236  7977.65  88.3871
 43.3216  7865.42  87.512
 43.5196  7752.69  86.9428
 43.7176  7699.3  87.0409
 43.9156  7710.08  87.0062
 44.1136  7593.26  85.9014
 44.3116  7739.42  86.7375
 44.5096  7660.44  86.6013
 44.7076  7639.14  86.4149
 44.9056  7599.75  86.0654
 45.1036  7582.84  85.5963
 45.3016  7484.15  85.538
 45.4996  7432.59  85.1807
 45.6976  7339.14  84.8169
 45.8956  7474.5  85.4006
 46.0936  7458.18  85.3127
 46.2916  7540.84  85.7623
 46.4896  7507.14  85.606
 46.6876  7331.14  85.2991
 46.8856  7336.74  84.605
 47.0836  7219.77  84.1722
 47.2816  7115.91  83.4404
 47.4796  7220.48  84.1668
 47.6776  7141.16  84.6456
 47.8756  7220.54  84.2794
 48.0736  7181.18  84.5141
 48.2716  7040.46  83.4873
 48.4696  7147.6  83.7221
 48.6676  7004.74  83.4549
 48.8656  7052.73  83.4542
 49.0636  6994.52  83.0711
 49.2616  6919.63  82.6639
 49.4596  6897.8  82.1129
 49.6576  6908.72  82.3946
 49.8556  6786.88  81.6801
 50.0536  6882.02  82.693
 50.2516  6941.65  83.1947
 50.4496  6820.52  82.1085
 50.6476  6852.25  81.9918
 50.8456  6843.76  82.0301
 51.0436  6698.4  81.5909
 51.2416  6762.81  81.6592
 51.4396  6557.66  80.8025
 51.6376  6652.59  81.204
 51.8356  6679.06  80.9981
 52.0336  6537.49  80.6473
 52.2316  6501.91  80.7776
 52.4296  6554.57  80.7996
 52.6276  6509.8  80.6412
 52.8256  6512.28  80.2095
 53.0236  6443.61  80.409
 53.2216  6399.43  80.1714
 53.4196  6419.23  80.2189
 53.6176  6388.1  80.4993
 53.8156  6333.18  79.8237
 54.0136  6395.9  80.404
 54.2116  6381.13  79.9679
 54.4096  6433.84  80.3504
 54.6076  6373.79  80.3272
 54.8056  6283.22  79.54
 55.0036  6249.57  79.7163
 55.2016  6282.71  79.4722
 55.3996  6293.36  79.5112
 55.5976  6321.06  79.8773
 55.7956  6276  79.398
 55.9936  6229.57  79.2422
 56.1916  6249.51  79.3917
 56.3896  6306.27  79.743
 56.5876  6110.58  79.0407
 56.7856  6129.59  78.6509
 56.9836  6139.95  78.5052
 57.1816  6193.27  79.2198
 57.3796  6259.13  79.437
 57.5776  6192.73  78.9352
 57.7756  6152.23  79.3229
 57.9736  6283.03  79.8317
 58.1716  6253.81  79.8923
 58.3696  6160.94  79.0427
 58.5676  6203.24  78.7822
 58.7656  6229.75  79.6367
 58.9636  6401.43  80.7539
 59.1616  6237.56  79.8473
 59.3596  6362.1  79.8981
 59.5576  6336.54  79.7955
 59.7556  6143.93  78.9953
 59.9536  6318.84  80.0084
 60.1516  6278.6  80.6188
 60.1996  0.0000000E+00  0.0000000E+00

File: 17_Da_f00145.xye
# /beamlines/bl04/projects/cycle2025-II/20250340211-lsimonelli/DATA/IS17_D/17_Da_f00145.xye : mythproc.py merge -s 0.006 -l 0.5 -f /beamlines/bl04/inhouse/ff/FlatField/ff_20Nov2024rod8mm60s_17keV.raw -b True -c true -o xye /beamlines/bl04/projects/cycle2025-II/20250340211-lsimonelli/DATA/IS17_D/17_Da_00145.dat
# IsMon = [6784329, 6787997, 6791467]  IsPos = [-1.4999, -2.4884, -3.4988]
# Wave = 0.4962  CalPath /beamlines/bl04/projects/cycle2025-II/20250340211-lsimonelli/DATA/Align/Si_Pos1_25keV_f00001.cal
# Date = 2025-09-25_09:58:56 Dt = 4.8000  Bin = 0.0060  <imon> = 6787931 +/- 2914 (Min/Max) 6784329 / 6791467
# icurr 252.8055  mocoIn 1.7250E-05  mocoOut 0.8091  i15 7.10628e+06  imon 6.78793e+06  i7 7.0000  iEMpd_timer 4.8000  iEMpd_1 3.5031E-08  iEMpd_2 7.9304E-08  iEMpd_3 1.8265E-08  iEMpd_4 4.8955E-08  iEMhp_timer 4.8000  iEMhp_1 4.9377E-06  iEMhp_2 -2.5486E-08  iEMhp_3 -2.4146E-08  iEMhp_4 -2.1886E-08
#      9776
 1.7416  70596  265.846
 1.9396  46645.4  216.361
 2.1376  33198.2  182.536
 2.3356  29389.8  171.386
 2.5336  27349.9  165.913
 2.7316  25735.5  161.034
 2.9296  24531.5  157.386
 3.1276  23833.9  154.686
 3.3256  23838  154.357
 3.5236  25637.9  159.88
 3.7216  23587.7  154.585
 3.9196  23053.4  152.055
 4.1176  22973.8  151.569
 4.3156  24321  156.096
 4.5136  26702.5  162.548
 4.7116  27728.7  166.783
 4.9096  26925.3  163.785
 5.1076  26739  163.808
 5.3056  27156.6  164.793
 5.5036  27046.7  164.358
 5.7016  27487.1  165.662
 5.8996  28254.1  167.163
 6.0976  28886.8  170.487
 6.2956  29376.3  171.237
 6.4936  30040.9  172.35
 6.6916  30430.8  174.479
 6.8896  31045.2  176.091
 7.0876  31982.4  179.459
 7.2856  32085.3  178.798
 7.4836  32403.5  179.01
 7.6816  33386.5  182.246
 7.8796  34709.6  185.797
 8.0776  36543.8  191.633
 8.2756  38232.7  194.587
 8.4736  38786.1  195.806
 8.6716  38253  195.107
 8.8696  38109.2  195.24
 9.0676  37470.5  192.949
 9.2656  36052.1  189.952
 9.4636  35958.4  188.082
 9.6616  35220.4  186.924
 9.8596  33834.2  182.704
 10.0576  31965.8  178.244
 10.2556  30824.3  175.484
 10.4536  30382.1  173.823
 10.6516  29696.7  172.04
 10.8496  28632.2  168.323
 11.0476  27977.8  166.413
 11.2456  27364.6  165.117
 11.4436  27669.8  165.187
 11.6416  26893.7  163.221
 11.8396  25218  158.267
 12.0376  25304.7  158.158
 12.2356  24810.2  157.017
 12.4336  24683  156.158
 12.6316  24234.1  155.01
 12.8296  24666.7  156.011
 13.0276  25374.1  158.407
 13.2256  25167.3  158.139
 13.4236  24956.3  157.243
 13.6216  24972.6  157.318
 13.8196  24941.3  156.973
 14.0176  24595.3  156.162
 14.2156  23926.3  153.069
 14.4136  22858.8  150.996
 14.6116  22758.3  149.866
 14.8096  21867.5  146.878
 15.0076  20626.5  146.492
 15.2056  20433.5  141.571
 15.4036  19368  138.67
 15.6016  18947.4  136.228
 15.7996  18703.3  135.624
 15.9976  17746.5  135.083
 16.1956  17324.7  131.334
 16.3936  17203.7  130.037
 16.5916  16752  128.96
 16.7896  16747.8  128.999
 16.9876  16691.4  130.275
 17.1856  16271.4  126.982
 17.3836  16023.7  125.917
 17.5816  15513.3  124.387
 17.7796  15403.1  123.875
 17.9776  15180.4  123.759
 18.1756  15607.2  124.163
 18.3736  15429.3  123.98
 18.5716  14921  121.662
 18.7696  14972.2  121.436
 18.9676  14565.9  119.587
 19.1656  14524.8  119.977
 19.3636  14439.8  119.835
 19.5616  14306.7  119.451
 19.7596  14474.4  119.556
 19.9576  15046  121.94
 20.1556  14469.8  120.106
 20.3536  13979.7  117.429
 20.5516  13825.6  117.23
 20.7496  13503.9  115.803
 20.9476  13284.7  114.617
 21.1456  13635.8  116.439
 21.3436  13387.9  115.334
 21.5416  13077.7  113.99
 21.7396  13041.1  113.679
 21.9376  13012.4  113.312
 22.1356  13103  113.831
 22.3336  13029.9  113.808
 22.5316  13098.8  114.18
 22.7296  12989.9  113.063
 22.9276  12967.6  113.656
 23.1256  13115.1  113.767
 23.3236  12980.8  113.765
 23.5216  12868.4  112.919
 23.7196  12703.3  112.143
 23.9176  12601.3  111.452
 24.1156  12559.5  111.738
 24.3136  12170  110.805
 24.5116  12055.2  109.806
 24.7096  11929.8  109.046
 24.9076  11589.9  107.51
 25.1056  11465.6  107.4
 25.3036  11387.8  106.523
 25.5016  11346.6  106.366
 25.6996  11202.9  105.265
 25.8976  11249.4  105.939
 26.0956  11201.3  105.715
 26.2936  11278.9  105.728
 26.4916  11249.3  105.468
 26.6896  10897.5  104.104
 26.8876  10878.9  103.871
 27.0856  10882.8  103.934
 27.2836  10636.9  102.65
 27.4816  10573.4  102.278
 27.6796  10502.6  102.311
 27.8776  10486.1  102.093
 28.0756  10467  102.281
 28.2736  10390  101.487
 28.4716  10112.9  100.171
 28.6696  10239  100.639
 28.8676  10109.1  100.351
 29.0656  9968.46  99.6306
 29.2636  9971.42  99.4404
 29.4616  9861.06  99.0569
 29.6596  9959.6  99.1099
 29.8576  9719.28  98.5974
 30.0556  9777.47  98.7663
 30.2536  9788.72  98.6165
 30.4516  9704.12  97.8515
 30.6496  9792.2  98.0175
 30.8476  9513.03  97.0528
 31.0456  9479.25  96.8479
 31.2436  9539.88  96.4216
 31.4416  9426.69  96.0281
 31.6396  9540.3  96.6558
 31.8376  9493.98  95.9596
 32.0356  9266.38  95.3734
 32.2336  9318.93  95.0229
 32.4316  9174.01  94.679
 32.6296  9226.43  94.7841
 32.8276  9207.83  94.4583
 33.0256  9063.72  93.7944
 33.2236  9183.58  94.5681
 33.4216  9229.35  94.4758
 33.6196  9160.17  94.4248
 33.8176  9107.91  94.3199
 34.0156  8855.91  92.6253
 34.2136  9030.42  93.5724
 34.4116  8903.99  93.06
 34.6096  8816.21  92.474
 34.8076  8704.01  92.3073
 35.0056  8839.37  92.7049
 35.2036  8706.71  92.2189
 35.4016  8736.26  92.2907
 35.5996  8661.07  91.9349
 35.7976  8587.78  91.8233
 35.9956  8573.44  91.3834
 36.1936  8489.17  90.8056
 36.3916  8483.51  90.9538
 36.5896  8448.01  91.7452
 36.7876  8449.17  91.139
 36.9856  8325.01  90.491
 37.1836  8434.08  90.1752
 37.3816  8512.04  90.9527
 37.5796  8309.16  91.6178
 37.7776  8223.79  89.5172
 37.9756  8189.82  89.2115
 38.1736  8360.47  90.3346
 38.3716  8205.48  89.7689
 38.5696  8160.38  89.9042
 38.7676  8028.88  88.6882
 38.9656  8087.3  88.6423
 39.1636  8025.32  88.5753
 39.3616  8102.38  88.9216
 39.5596  8085.82  89.6773
 39.7576  7939.89  88.2295
 39.9556  8145.06  89.0104
 40.1536  8179.84  89.4018
 40.3516  8228.31  89.6765
 40.5496  8097.67  89.2257
 40.7476  8106.88  89.2817
 40.9456  8264.18  89.8838
 41.1436  8045.09  88.4141
 41.3416  8146  89.2951
 41.5396  7961.57  88.0892
 41.7376  8066.88  88.9423
 41.9356  7955.14  88.1821
 42.1336  8018.64  88.6872
 42.3316  8022.04  88.8959
 42.5296  8013.69  88.3628
 42.7276  7945.41  88.2287
 42.9256  7935.69  88.0475
 43.1236  7921.89  88.0764
 43.3216  8003.31  88.2777
 43.5196  7830.58  87.382
 43.7176  7855.93  87.9191
 43.9156  7776.03  87.373
 44.1136  7672.44  86.3395
 44.3116  7702.3  86.5187
 44.5096  7653.15  86.5532
 44.7076  7633.46  86.3731
 44.9056  7697.46  86.6117
 45.1036  7528.97  85.2798
 45.3016  7592.32  86.1456
 45.4996  7447.38  85.2588
 45.6976  7352.39  84.8828
 45.8956  7558.29  85.8938
 46.0936  7434.91  85.1983
 46.2916  7424.31  85.1133
 46.4896  7539.79  85.8082
 46.6876  7390.91  85.6682
 46.8856  7296.45  84.3584
 47.0836  7350.34  84.9372
 47.2816  7127.34  83.5101
 47.4796  7343.74  84.8729
 47.6776  7245.38  85.2567
 47.8756  7197.48  84.149
 48.0736  7217.36  84.7199
 48.2716  7062.16  83.6185
 48.4696  7163.65  83.8153
 48.6676  7074.9  83.8651
 48.8656  7107.1  83.7869
 49.0636  7167.49  84.0977
 49.2616  6919.64  82.6613
 49.4596  7053.69  83.0356
 49.6576  7046.62  83.2146
 49.8556  7068.78  83.3623
 50.0536  6989.83  83.3443
 50.2516  6914.03  83.0228
 50.4496  6925.32  82.7404
 50.6476  6896.63  82.2546
 50.8456  6829.4  81.9346
 51.0436  6636.43  81.2028
 51.2416  6713.27  81.3427
 51.4396  6542.49  80.7008
 51.6376  6793.39  82.059
 51.8356  6622.7  80.6554
 52.0336  6530.98  80.6006
 52.2316  6634.64  81.5907
 52.4296  6659.91  81.42
 52.6276  6543.6  80.8281
 52.8256  6683.36  81.2322
 53.0236  6448  80.4535
 53.2216  6405.38  80.2206
 53.4196  6333.17  79.6944
 53.6176  6425.45  80.7503
 53.8156  6383.19  80.1513
 54.0136  6415.86  80.5231
 54.2116  6401.45  80.1015
 54.4096  6412.24  80.2162
 54.6076  6367.6  80.2868
 54.8056  6295.53  79.6166
 55.0036  6241.12  79.6654
 55.2016  6329.4  79.7718
 55.3996  6357.41  79.9133
 55.5976  6301.64  79.7552
 55.7956  6391.93  80.1313
 55.9936  6235.88  79.285
 56.1916  6276.18  79.5644
 56.3896  6321.19  79.8339
 56.5876  6200.38  79.62
 56.7856  6288.39  79.6535
 56.9836  6159.48  78.6279
 57.1816  6253.73  79.6111
 57.3796  6288.22  79.6238
 57.5776  6256.07  79.3419
 57.7756  6132.75  79.1918
 57.9736  6104.17  78.6824
 58.1716  6241.86  79.8117
 58.3696  6186.71  79.2048
 58.5676  6274.06  79.2261
 58.7656  6234.52  79.6562
 58.9636  6245.42  79.7582
 59.1616  6225.46  79.7601
 59.3596  6362.57  79.8695
 59.5576  6400.24  80.1642
 59.7556  6288.75  79.8896
 59.9536  6392.85  80.4441
 60.1516  6137.52  79.6767
 60.1996  0.0000000E+00  0.0000000E+00