Folder: echemistpy/docs/examples/XRD/IS17_D/Data/IS17_D (part 2)

File: 17_Da_f00005.xye
# /beamlines/bl04/projects/cycle2025-II/20250340211-lsimonelli/DATA/IS17_D/17_Da_f00005.xye : mythproc.py merge -s 0.006 -l 0.5 -f /beamlines/bl04/inhouse/ff/FlatField/ff_20Nov2024rod8mm60s_17keV.raw -b True -c true -o xye /beamlines/bl04/projects/cycle2025-II/20250340211-lsimonelli/DATA/IS17_D/17_Da_00005.dat
# IsMon = [6785682, 6787489, 6790037]  IsPos = [-1.5000, -2.4885, -3.4988]
# Wave = 0.4962  CalPath /beamlines/bl04/projects/cycle2025-II/20250340211-lsimonelli/DATA/Align/Si_Pos1_25keV_f00001.cal
# Date = 2025-09-23_18:57:26 Dt = 4.8000  Bin = 0.0060  <imon> = 6787736 +/- 1786 (Min/Max) 6785682 / 6790037
# icurr 253.2008  mocoIn 1.7277E-05  mocoOut 0.8103  i15 7.09459e+06  imon 6.78774e+06  i7 3.6667  iEMpd_timer 4.8000  iEMpd_1 3.5071E-08  iEMpd_2 7.8109E-08  iEMpd_3 1.5490E-08  iEMpd_4 4.7878E-08  iEMhp_timer 4.8000  iEMhp_1 4.9464E-06  iEMhp_2 -2.4584E-08  iEMhp_3 -2.3261E-08  iEMhp_4 -2.0764E-08
#      9776
 1.7416  70591.9  265.808
 1.9396  45848.3  214.482
 2.1376  32041.2  179.306
 2.3356  28284.5  168.113
 2.5336  26381.1  162.93
 2.7316  24856.3  158.248
 2.9296  23662.1  154.565
 3.1276  23367.9  153.155
 3.3256  23127.2  152.033
 3.5236  25147.4  158.485
 3.7216  23036.7  152.768
 3.9196  22380.2  149.817
 4.1176  22239.6  149.114
 4.3156  23705.3  154.108
 4.5136  25998.7  160.392
 4.7116  26940.8  164.399
 4.9096  26259.3  161.745
 5.1076  25890.9  161.185
 5.3056  26374.8  162.408
 5.5036  26000.7  161.238
 5.7016  26382.8  162.299
 5.8996  26974.5  163.334
 6.0976  27556.6  166.509
 6.2956  28234.2  167.88
 6.4936  29027.7  169.417
 6.6916  29341  171.326
 6.8896  30258.1  173.838
 7.0876  31224.1  177.245
 7.2856  30992.9  175.724
 7.4836  31507.7  176.522
 7.6816  32320.3  179.314
 7.8796  33984.4  183.849
 8.0776  35164.9  187.994
 8.2756  36920.8  191.227
 8.4736  37557.7  192.685
 8.6716  36839.4  191.479
 8.8696  36423.7  190.862
 9.0676  35758.1  188.485
 9.2656  35014.8  187.197
 9.4636  34458.9  184.12
 9.6616  33850.9  183.264
 9.8596  32273.8  178.43
 10.0576  30749.1  174.825
 10.2556  29652.9  172.111
 10.4536  28489.6  168.315
 10.6516  27731.1  166.248
 10.8496  27104.1  163.769
 11.0476  26327.7  161.384
 11.2456  25726.2  160.107
 11.4436  26271.4  160.95
 11.6416  25684.4  159.506
 11.8396  24241.4  155.167
 12.0376  24146.2  154.48
 12.2356  23508.4  152.872
 12.4336  23593.6  152.669
 12.6316  23295.9  151.974
 12.8296  23584.1  152.544
 13.0276  24216.5  154.757
 13.2256  24156.1  154.93
 13.4236  23976.5  154.12
 13.6216  23884.6  153.846
 13.8196  23834.2  153.452
 14.0176  23462.6  152.524
 14.2156  23090.5  150.371
 14.4136  21945  147.953
 14.6116  21568.2  145.894
 14.8096  20965.6  143.821
 15.0076  19720.6  143.246
 15.2056  19418.2  138.014
 15.4036  18434.4  135.292
 15.6016  18235.4  133.653
 15.7996  17732.3  132.069
 15.9976  17034  132.341
 16.1956  16498.3  128.162
 16.3936  16178.2  126.098
 16.5916  16151.3  126.626
 16.7896  16071.7  126.37
 16.9876  15860.5  126.993
 17.1856  15493.8  123.908
 17.3836  15239.4  122.774
 17.5816  14682.4  121.004
 17.7796  14656.5  120.822
 17.9776  14394.3  120.514
 18.1756  14451.7  119.483
 18.3736  14209.6  118.978
 18.5716  14009.9  117.893
 18.7696  13972.7  117.315
 18.9676  13811.2  116.446
 19.1656  13798.4  116.94
 19.3636  13787.9  117.098
 19.5616  13611.9  116.512
 19.7596  13779.2  116.644
 19.9576  14262  118.718
 20.1556  13975.7  118.039
 20.3536  13425  115.075
 20.5516  13133.4  114.266
 20.7496  12749.3  112.438
 20.9476  12704.6  112.082
 21.1456  12834.7  112.971
 21.3436  12816.7  112.846
 21.5416  12668.4  112.189
 21.7396  12483  111.212
 21.9376  12493.1  111.012
 22.1356  12458.3  111.155
 22.3336  12397.4  110.994
 22.5316  12480.1  111.467
 22.7296  12430.1  110.619
 22.9276  12424.8  111.261
 23.1256  12643.6  111.708
 23.3236  12469.3  111.496
 23.5216  12324.1  110.509
 23.7196  12159.1  109.926
 23.9176  12101.8  109.217
 24.1156  11994.2  109.193
 24.3136  11439.7  107.424
 24.5116  11629.6  107.844
 24.7096  11364.1  106.426
 24.9076  11131.2  105.354
 25.1056  10963.3  104.746
 25.3036  10903.5  104.235
 25.5016  10739.9  103.487
 25.6996  10781  103.265
 25.8976  10688.7  103.257
 26.0956  10752.8  103.578
 26.2936  10927.5  104.066
 26.4916  10772.7  103.212
 26.6896  10515.3  102.264
 26.8876  10338.9  101.257
 27.0856  10463.9  101.872
 27.2836  10186.6  100.455
 27.4816  10156  100.239
 27.6796  10126.6  100.464
 27.8776  9907.59  99.2358
 28.0756  9971.75  99.8345
 28.2736  9933.12  99.2284
 28.4716  9721.52  98.2139
 28.6696  9798.59  98.4529
 28.8676  9584.41  97.7118
 29.0656  9510.07  97.3139
 29.2636  9493.42  96.9447
 29.4616  9437.28  96.9106
 29.6596  9516.75  96.886
 29.8576  9375.83  96.846
 30.0556  9354.38  96.6074
 30.2536  9555.24  97.439
 30.4516  9322.1  95.9066
 30.6496  9393.65  96.0021
 30.8476  9263.21  95.7708
 31.0456  9119.08  94.9894
 31.2436  9109.4  94.2112
 31.4416  9030.07  93.9822
 31.6396  8961.2  93.6721
 31.8376  8987.98  93.3612
 32.0356  9013.72  94.0585
 32.2336  8944.88  93.0904
 32.4316  8920.99  93.3646
 32.6296  9025.77  93.6811
 32.8276  8847.73  92.5972
 33.0256  8733.75  92.0719
 33.2236  8739.11  92.246
 33.4216  8822.48  92.3743
 33.6196  8701.27  92.0291
 33.8176  8782.57  92.6206
 34.0156  8664.73  91.6192
 34.2136  8555.14  91.0763
 34.4116  8429.45  90.5523
 34.6096  8474.35  90.6675
 34.8076  8348.7  90.4032
 35.0056  8389.51  90.3158
 35.2036  8330.34  90.2022
 35.4016  8296.18  89.9416
 35.5996  8334.56  90.1835
 35.7976  8181.35  89.6203
 35.9956  8272.83  89.7668
 36.1936  8243.03  89.4752
 36.3916  8138.2  89.0786
 36.5896  8080.07  90.1819
 36.7876  8215.55  89.8747
 36.9856  7999.95  88.7155
 37.1836  8090.93  88.3266
 37.3816  8087.87  88.6702
 37.5796  8029.1  90.0572
 37.7776  7926.97  87.8784
 37.9756  7848.75  87.3329
 38.1736  8078.09  88.7954
 38.3716  8031.33  88.8114
 38.5696  7845.97  88.1581
 38.7676  7750.72  87.1355
 38.9656  7818.12  87.1517
 39.1636  7751.89  87.0141
 39.3616  7863.41  87.5938
 39.5596  7715.16  87.6003
 39.7576  7695.31  86.8675
 39.9556  7736.51  86.7465
 40.1536  7897.11  87.8415
 40.3516  7892.41  87.8295
 40.5496  7982.15  88.3771
 40.7476  7925.68  88.2712
 40.9456  7895.36  87.8603
 41.1436  7809.77  87.1051
 41.3416  7814.64  87.4643
 41.5396  7756.96  86.9488
 41.7376  7872.99  87.8662
 41.9356  7701.08  86.7617
 42.1336  7807.62  87.5083
 42.3316  7693.95  87.061
 42.5296  7670.09  86.4497
 42.7276  7625.62  86.436
 42.9256  7841.37  87.5137
 43.1236  7688.79  86.7712
 43.3216  7657.57  86.4516
 43.5196  7517.18  85.619
 43.7176  7603.92  86.4963
 43.9156  7455.88  85.5607
 44.1136  7510.76  85.4298
 44.3116  7498.09  85.3657
 44.5096  7435.56  85.3206
 44.7076  7490.7  85.5664
 44.9056  7454.63  85.2334
 45.1036  7333.16  84.1678
 45.3016  7347.87  84.748
 45.4996  7240.75  84.0669
 45.6976  7142.76  83.6649
 45.8956  7254.83  84.1477
 46.0936  7252.81  83.8994
 46.2916  7220.63  83.9338
 46.4896  7345.01  84.6911
 46.6876  7113.66  84.0445
 46.8856  7017.67  82.7364
 47.0836  7071.15  83.3056
 47.2816  7065.18  83.1433
 47.4796  7028.95  83.038
 47.6776  6937.1  83.4135
 47.8756  6927.28  82.5536
 48.0736  7032.83  83.6299
 48.2716  6860.68  82.4198
 48.4696  7095.17  83.4025
 48.6676  6963.8  83.2137
 48.8656  6916.44  82.6628
 49.0636  6895.55  82.4823
 49.2616  6683.91  81.2384
 49.4596  6839.84  81.756
 49.6576  6772.1  81.5654
 49.8556  6734.64  81.3681
 50.0536  6754.25  81.9239
 50.2516  6678.06  81.5684
 50.4496  6671.78  81.2156
 50.6476  6754.52  81.3995
 50.8456  6666.22  80.9497
 51.0436  6528.52  80.5444
 51.2416  6439.92  79.6761
 51.4396  6358.37  79.5501
 51.6376  6452.84  79.9751
 51.8356  6426.06  79.45
 52.0336  6441.04  80.0404
 52.2316  6421.46  80.2659
 52.4296  6384.63  79.7133
 52.6276  6342.62  79.5804
 52.8256  6358.49  79.2575
 53.0236  6194.19  78.8517
 53.2216  6208.86  78.9576
 53.4196  6155.44  78.5627
 53.6176  6249.39  79.6327
 53.8156  6191.01  78.9295
 54.0136  6256.86  79.5191
 54.2116  6112.33  78.2671
 54.4096  6148.83  78.5445
 54.6076  6103.45  78.6047
 54.8056  6061.13  78.1224
 55.0036  6045.83  78.2873
 55.2016  6209.14  78.9338
 55.3996  6129.52  78.4677
 55.5976  6185.22  79.0131
 55.7956  6075.3  78.1251
 55.9936  6121.44  78.55
 56.1916  6045.83  78.0872
 56.3896  6065.24  78.1989
 56.5876  6035.91  78.5553
 56.7856  6032.18  78.0129
 56.9836  6018.91  77.7242
 57.1816  5989.19  77.9054
 57.3796  6003.67  77.8015
 57.5776  6044.51  77.9997
 57.7756  6013.83  78.4266
 57.9736  5973.56  77.8425
 58.1716  6042.92  78.5273
 58.3696  5927.25  77.5237
 58.5676  6035.28  77.6996
 58.7656  6005.3  78.1801
 58.9636  6122.73  78.9772
 59.1616  6090.64  78.8964
 59.3596  6198.46  78.8402
 59.5576  6210.35  78.9732
 59.7556  6020.14  78.172
 59.9536  6101.85  78.5991
 60.1516  6079.71  79.3078
 60.1996  0.0000000E+00  0.0000000E+00

File: 17_Da_f00007.xye
# /beamlines/bl04/projects/cycle2025-II/20250340211-lsimonelli/DATA/IS17_D/17_Da_f00007.xye : mythproc.py merge -s 0.006 -l 0.5 -f /beamlines/bl04/inhouse/ff/FlatField/ff_20Nov2024rod8mm60s_17keV.raw -b True -c true -o xye /beamlines/bl04/projects/cycle2025-II/20250340211-lsimonelli/DATA/IS17_D/17_Da_00007.dat
# IsMon = [6754976, 6757488, 6755761]  IsPos = [-1.5000, -2.4885, -3.4988]
# Wave = 0.4962  CalPath /beamlines/bl04/projects/cycle2025-II/20250340211-lsimonelli/DATA/Align/Si_Pos1_25keV_f00001.cal
# Date = 2025-09-23_19:30:27 Dt = 4.8000  Bin = 0.0060  <imon> = 6756075 +/- 1049 (Min/Max) 6754976 / 6757488
# icurr 250.1078  mocoIn 1.7063E-05  mocoOut 0.8003  i15 7.06502e+06  imon 6.75608e+06  i7 5.6667  iEMpd_timer 4.8000  iEMpd_1 3.4854E-08  iEMpd_2 7.7744E-08  iEMpd_3 1.8138E-08  iEMpd_4 4.6940E-08  iEMhp_timer 4.8000  iEMhp_1 4.8863E-06  iEMhp_2 -2.4089E-08  iEMhp_3 -2.3361E-08  iEMhp_4 -2.1273E-08
#      9776
 1.7416  68311.9  261.462
 1.9396  44076.8  210.29
 2.1376  30870.8  175.989
 2.3356  27540.6  165.876
 2.5336  28639.3  169.748
 2.7316  24198.2  156.124
 2.9296  22723.4  151.454
 3.1276  22276.1  149.517
 3.3256  21958  148.126
 3.5236  23964.6  154.708
 3.7216  22023.4  149.373
 3.9196  21689.3  147.49
 4.1176  21082.5  145.187
 4.3156  22594.3  150.464
 4.5136  25535.8  158.952
 4.7116  26347.6  162.58
 4.9096  25564.7  159.593
 5.1076  24992.2  158.359
 5.3056  25285.4  159.028
 5.5036  24740.9  157.279
 5.7016  25185.9  158.576
 5.8996  25898.9  160.041
 6.0976  26375.5  162.903
 6.2956  27058.7  164.35
 6.4936  27856.9  165.972
 6.6916  28248.5  168.105
 6.8896  29230.5  170.866
 7.0876  30268.4  174.507
 7.2856  30039.6  173.003
 7.4836  30756.2  174.403
 7.6816  31154.6  176.046
 7.8796  32821.1  180.675
 8.0776  36159  190.64
 8.2756  36767.2  190.847
 8.4736  36735.4  190.579
 8.6716  36234.3  189.894
 8.8696  36824.9  191.929
 9.0676  35990.4  189.105
 9.2656  33847.5  184.063
 9.4636  33527.9  181.639
 9.6616  32534.4  179.675
 9.8596  31473  176.186
 10.0576  29772.3  172.009
 10.2556  28600.5  169.011
 10.4536  31455.7  176.841
 10.6516  30904.9  175.482
 10.8496  26496.1  161.922
 11.0476  26479.9  161.843
 11.2456  27738.7  166.243
 11.4436  26073.7  160.355
 11.6416  24843.7  156.873
 11.8396  23821.1  153.815
 12.0376  23428.4  152.166
 12.2356  24253.6  155.268
 12.4336  23741.1  153.152
 12.6316  22810  150.38
 12.8296  23282.2  151.57
 13.0276  23615.9  152.826
 13.2256  23317.4  152.213
 13.4236  23467.4  152.474
 13.6216  23271.9  151.86
 13.8196  23816.5  153.395
 14.0176  23160.7  151.55
 14.2156  22499.9  148.433
 14.4136  21170.9  145.321
 14.6116  21073.8  144.213
 14.8096  20363.3  141.749
 15.0076  19337  141.841
 15.2056  18887.8  136.124
 15.4036  18284.9  134.746
 15.6016  17818.2  132.119
 15.7996  17404.6  130.856
 15.9976  16523.5  130.346
 16.1956  16091.6  126.581
 16.3936  15739.9  124.389
 16.5916  15956.3  125.865
 16.7896  15722.5  124.995
 16.9876  15552.8  125.742
 17.1856  15333.7  123.253
 17.3836  14659.2  120.418
 17.5816  14338.1  119.558
 17.7796  14599.2  120.58
 17.9776  14433.4  120.68
 18.1756  15501.8  123.733
 18.3736  15051  122.443
 18.5716  13975.7  117.75
 18.7696  14001.4  117.429
 18.9676  13598.6  115.543
 19.1656  13569.7  115.976
 19.3636  13387.5  115.382
 19.5616  13401.9  115.611
 19.7596  13468.2  115.311
 19.9576  13994  117.602
 20.1556  13337.7  115.315
 20.3536  12927.1  112.921
 20.5516  12819.1  112.889
 20.7496  12495  111.308
 20.9476  12921.7  113.034
 21.1456  12962.8  113.533
 21.3436  12580.5  111.802
 21.5416  12475.3  111.338
 21.7396  12078.9  109.399
 21.9376  12333.5  110.325
 22.1356  12454.7  111.133
 22.3336  12392.2  110.975
 22.5316  12366.6  110.962
 22.7296  12240.1  109.764
 22.9276  12040.5  109.533
 23.1256  12552.4  111.316
 23.3236  12035.5  109.52
 23.5216  12086.9  109.442
 23.7196  11956.3  109.015
 23.9176  11761.5  107.671
 24.1156  11658.2  107.66
 24.3136  11449.5  107.461
 24.5116  11488.1  107.175
 24.7096  11395.5  106.563
 24.9076  11180.3  105.572
 25.1056  10957.9  104.704
 25.3036  10713  103.319
 25.5016  10800  103.767
 25.6996  10688.4  102.825
 25.8976  10792.7  103.759
 26.0956  10832.6  103.97
 26.2936  10650.4  102.738
 26.4916  10611  102.426
 26.6896  10257.6  101.005
 26.8876  10140.9  100.283
 27.0856  10252.6  100.842
 27.2836  10028.3  99.6725
 27.4816  10066  99.7935
 27.6796  10023.8  99.9543
 27.8776  9986.12  99.6282
 28.0756  9893.66  99.4427
 28.2736  9782.19  98.4739
 28.4716  9577.13  97.4806
 28.6696  9651.49  97.7103
 28.8676  9553.56  97.5523
 29.0656  9379.19  96.6413
 29.2636  9288.4  95.8878
 29.4616  9373.38  96.5796
 29.6596  9521.53  96.9144
 29.8576  9094.1  95.3833
 30.0556  9336.67  96.5203
 30.2536  9246.43  95.855
 30.4516  9131.43  94.9266
 30.6496  9241.25  95.2245
 30.8476  9011.8  94.4665
 31.0456  9036.01  94.5509
 31.2436  8940.03  93.3308
 31.4416  8918.74  93.3948
 31.6396  9168.86  94.7417
 31.8376  8981.9  93.3222
 32.0356  8846.87  93.1696
 32.2336  8810.98  92.385
 32.4316  8805.52  92.7556
 32.6296  8715.74  92.0574
 32.8276  8729.11  91.9613
 33.0256  8667.83  91.7272
 33.2236  8632.91  91.6813
 33.4216  8628.82  91.3602
 33.6196  8490.32  90.9034
 33.8176  8418.14  90.6769
 34.0156  8457.13  90.5016
 34.2136  8390.89  90.1932
 34.4116  8212.62  89.3787
 34.6096  8292.79  89.6911
 34.8076  8324.05  90.2675
 35.0056  8386.08  90.2969
 35.2036  8298.19  90.0243
 35.4016  8260.65  89.7464
 35.5996  8115.04  88.9871
 35.7976  8049.57  88.8958
 35.9956  8231.2  89.5434
 36.1936  8141.59  88.9258
 36.3916  8001.78  88.3297
 36.5896  8086.51  90.2126
 36.7876  7982.15  88.5918
 36.9856  8036.71  88.9196
 37.1836  8049.63  88.1034
 37.3816  8033.7  88.3776
 37.5796  7795.8  88.7484
 37.7776  7752.26  86.9097
 37.9756  7902.97  87.63
 38.1736  7994.95  88.34
 38.3716  7934.07  88.2776
 38.5696  7803.57  87.915
 38.7676  7589.58  86.2116
 38.9656  7693.81  86.4464
 39.1636  7721.21  86.8294
 39.3616  7717.93  86.7697
 39.5596  7643.44  87.1955
 39.7576  7586.1  86.242
 39.9556  7638.25  86.1889
 40.1536  7771.03  87.1372
 40.3516  7720.78  86.8643
 40.5496  7740.87  87.0319
 40.7476  7694.6  86.9768
 40.9456  7767.2  87.1303
 41.1436  7738.34  86.7086
 41.3416  7681.85  86.7193
 41.5396  7723  86.7597
 41.7376  7695.73  86.8694
 41.9356  7628.53  86.351
 42.1336  7657.79  86.6636
 42.3316  7587.67  86.4582
 42.5296  7636.31  86.2586
 42.7276  7644.18  86.5419
 42.9256  7556.92  85.9106
 43.1236  7501.94  85.7115
 43.3216  7508.28  85.6004
 43.5196  7468.97  85.3366
 43.7176  7529.48  86.075
 43.9156  7391.44  85.19
 44.1136  7318.21  84.3296
 44.3116  7452.99  85.12
 44.5096  7360.97  84.8936
 44.7076  7351.57  84.7693
 44.9056  7322.18  84.4777
 45.1036  7219.13  83.5161
 45.3016  7149.63  83.6025
 45.4996  7243.21  84.085
 45.6976  6992.05  82.7871
 45.8956  7112.63  83.3122
 46.0936  7242.94  83.8357
 46.2916  7172.47  83.646
 46.4896  7120.76  83.3734
 46.6876  7022.67  83.4959
 46.8856  6939.03  82.2825
 47.0836  6932.95  82.4881
 47.2816  6951.27  82.4715
 47.4796  6937.35  82.4847
 47.6776  6823.61  82.7303
 47.8756  6863.39  82.17
 48.0736  6938.59  83.0687
 48.2716  6762.45  81.8294
 48.4696  6765.19  81.454
 48.6676  6828.62  82.4001
 48.8656  6845.46  82.2368
 49.0636  6783.46  81.8063
 49.2616  6630.93  80.9261
 49.4596  6665.73  80.7101
 49.6576  6686.92  81.0589
 49.8556  6631.59  80.7428
 50.0536  6609.14  81.0446
 50.2516  6612.52  81.1641
 50.4496  6592.38  80.7268
 50.6476  6757.86  81.422
 50.8456  6605.17  80.5832
 51.0436  6469.01  80.1787
 51.2416  6473.55  79.89
 51.4396  6181.78  78.4433
 51.6376  6355.88  79.3738
 51.8356  6391.28  79.2361
 52.0336  6240.5  78.7942
 52.2316  6323.02  79.6539
 52.4296  6270.71  79.0267
 52.6276  6248.45  78.9947
 52.8256  6253.92  78.5981
 53.0236  6161.51  78.6339
 53.2216  6193.1  78.8411
 53.4196  6126.58  78.3732
 53.6176  6121.51  78.8048
 53.8156  6089.97  78.2795
 54.0136  6150.15  78.8391
 54.2116  6159.69  78.5669
 54.4096  6083.61  78.1335
 54.6076  6071.72  78.3994
 54.8056  6002.66  77.7448
 55.0036  5973.84  77.8161
 55.2016  6040.68  77.8525
 55.3996  6070.67  78.0914
 55.5976  5894.82  77.1324
 55.7956  6055.81  77.9958
 55.9936  5893.06  77.0758
 56.1916  6050.53  78.1175
 56.3896  5951.42  77.466
 56.5876  6014.75  78.4218
 56.7856  5917.34  77.2758
 56.9836  5867.65  76.7399
 57.1816  5953.95  77.6766
 57.3796  5978.19  77.6341
 57.5776  5981.7  77.5921
 57.7756  5933.79  77.9023
 57.9736  5860.41  77.0997
 58.1716  5989.11  78.1819
 58.3696  5930.67  77.551
 58.5676  5930.48  77.0284
 58.7656  5942.57  77.7775
 58.9636  6075.09  78.6731
 59.1616  6030.21  78.5054
 59.3596  6043.63  77.863
 59.5576  6103.24  78.3043
 59.7556  6036.25  78.2916
 59.9536  6142.71  78.877
 60.1516  5967.06  78.5848
 60.1996  0.0000000E+00  0.0000000E+00