Folder: echemistpy/docs/examples/XRD/IS17_D/Data/IS17_D

Note: docs/README.md
# 文档概览

`docs/Characterization/` 目录保留了 EQCM、XRD、XPS 等实验表征资料，可在撰写技术文档或学术报告时引用。
后续若集成 Sphinx/MkDocs，可在本目录下新增 `conf.py` 或 `mkdocs.yml`。

File: 17_Da_f00002.xye
# /beamlines/bl04/projects/cycle2025-II/20250340211-lsimonelli/DATA/IS17_D/17_Da_f00002.xye : mythproc.py merge -s 0.006 -l 0.5 -f /beamlines/bl04/inhouse/ff/FlatField/ff_20Nov2024rod8mm60s_17keV.raw -b True -c true -o xye /beamlines/bl04/projects/cycle2025-II/20250340211-lsimonelli/DATA/IS17_D/17_Da_00002.dat
# IsMon = [6754486, 6757228, 6763395]  IsPos = [-1.5000, -2.4886, -3.4988]
# Wave = 0.4962  CalPath /beamlines/bl04/projects/cycle2025-II/20250340211-lsimonelli/DATA/Align/Si_Pos1_25keV_f00001.cal
# Date = 2025-09-23_18:07:44 Dt = 4.8000  Bin = 0.0060  <imon> = 6758370 +/- 3726 (Min/Max) 6754486 / 6763395
# icurr 250.7266  mocoIn 1.7102E-05  mocoOut 0.8025  i15 7.06163e+06  imon 6.75837e+06  i7 5.0000  iEMpd_timer 4.8000  iEMpd_1 3.5336E-08  iEMpd_2 7.7822E-08  iEMpd_3 1.6992E-08  iEMpd_4 4.7813E-08  iEMhp_timer 4.8000  iEMhp_1 4.8991E-06  iEMhp_2 -2.5058E-08  iEMhp_3 -2.2759E-08  iEMhp_4 -2.1056E-08
#      9776
 1.7416  70775.1  266.189
 1.9396  46075  215.056
 2.1376  32991.5  181.971
 2.3356  29513.3  171.75
 2.5336  27308.3  165.791
 2.7316  25576.6  160.539
 2.9296  24473.3  157.208
 3.1276  23725.7  154.334
 3.3256  23643.4  153.734
 3.5236  25362.8  159.183
 3.7216  23090.7  152.948
 3.9196  22647.2  150.712
 4.1176  22587  150.289
 4.3156  23796.5  154.4
 4.5136  26301.9  161.327
 4.7116  27205.5  165.2
 4.9096  26506.2  162.506
 5.1076  26010  161.559
 5.3056  26257.2  162.177
 5.5036  25886.9  160.882
 5.7016  26374.7  162.274
 5.8996  26860.1  162.986
 6.0976  27721.2  167.007
 6.2956  28221.8  167.835
 6.4936  28993  169.315
 6.6916  29462.6  171.677
 6.8896  30200.4  173.68
 7.0876  31232.2  177.272
 7.2856  31083.6  175.985
 7.4836  31605.9  176.793
 7.6816  32099.5  178.7
 7.8796  33522.4  182.59
 8.0776  35153  187.949
 8.2756  36793.9  190.882
 8.4736  37339.2  192.12
 8.6716  36399.7  190.33
 8.8696  36329  190.616
 9.0676  35587.8  188.03
 9.2656  34465.3  185.721
 9.4636  34154.2  183.286
 9.6616  33307.7  181.769
 9.8596  31898.2  177.412
 10.0576  30527.9  173.829
 10.2556  29135  170.624
 10.4536  28302  167.773
 10.6516  27185.7  164.62
 10.8496  26386.5  161.581
 11.0476  25817  159.815
 11.2456  25059.8  158.473
 11.4436  25100.7  157.325
 11.6416  26425.4  161.79
 11.8396  23946.1  154.226
 12.0376  23940.7  153.815
 12.2356  23359.6  152.387
 12.4336  23622.1  152.76
 12.6316  23109.8  151.365
 12.8296  23465.7  152.166
 13.0276  23883.5  153.682
 13.2256  24047.7  154.583
 13.4236  23995.1  154.186
 13.6216  23746.1  153.406
 13.8196  24074.4  153.982
 14.0176  23529.1  152.786
 14.2156  22922.7  149.828
 14.4136  21984.6  148.084
 14.6116  21628.5  146.099
 14.8096  20911.4  143.629
 15.0076  19700.5  143.167
 15.2056  19358.9  137.794
 15.4036  18737.8  136.383
 15.6016  18187.5  133.468
 15.7996  17635  131.69
 15.9976  17000.3  132.197
 16.1956  16598.9  128.549
 16.3936  16156.9  126.013
 16.5916  15750.4  125.038
 16.7896  15801.7  125.299
 16.9876  15752.8  126.562
 17.1856  15344  123.194
 17.3836  15052.2  122.047
 17.5816  14757.7  121.324
 17.7796  14461.3  120.032
 17.9776  14084.4  119.204
 18.1756  14018.1  117.601
 18.3736  13831  117.387
 18.5716  13827.1  117.117
 18.7696  13707.2  116.195
 18.9676  13582.7  115.483
 19.1656  13481.2  115.765
 19.3636  13433.1  115.689
 19.5616  13239.3  114.907
 19.7596  13414.7  115.095
 19.9576  13601.2  115.929
 20.1556  14341.2  119.569
 20.3536  13830.6  116.795
 20.5516  13224  114.653
 20.7496  12748.7  112.44
 20.9476  12695  112.043
 21.1456  12897.8  113.245
 21.3436  12613.8  111.955
 21.5416  12362.4  110.828
 21.7396  12447.4  111.055
 21.9376  12377.7  110.502
 22.1356  12377.3  110.793
 22.3336  12287.6  110.493
 22.5316  12332  110.802
 22.7296  12505.9  110.939
 22.9276  12168.3  110.097
 23.1256  12425.7  110.727
 23.3236  12429.9  111.318
 23.5216  12384.7  110.777
 23.7196  12119.8  109.757
 23.9176  12057  109.01
 24.1156  12128.8  109.801
 24.3136  11506  107.746
 24.5116  11568.2  107.571
 24.7096  11231.1  105.813
 24.9076  11124.3  105.333
 25.1056  10936.5  104.623
 25.3036  10770.3  103.67
 25.5016  10797.5  103.75
 25.6996  10829.5  103.501
 25.8976  10680.1  103.221
 26.0956  10692  103.283
 26.2936  10673.2  102.852
 26.4916  10806.2  103.371
 26.6896  10340.4  101.408
 26.8876  10329.3  101.215
 27.0856  10354.6  101.332
 27.2836  10108.6  100.07
 27.4816  9979.87  99.3607
 27.6796  9964.33  99.6574
 27.8776  9854.84  98.9727
 28.0756  9851.32  99.2273
 28.2736  9863.98  98.8847
 28.4716  9618.43  97.6914
 28.6696  9668.7  97.798
 28.8676  9594.18  97.7606
 29.0656  9411.04  96.805
 29.2636  9421.48  96.5784
 29.4616  9448.16  96.9558
 29.6596  9317.97  95.863
 29.8576  9192.2  95.8865
 30.0556  9334.3  96.4976
 30.2536  9296.65  96.1046
 30.4516  9238.52  95.4723
 30.6496  9236.13  95.1908
 30.8476  9154.92  95.203
 31.0456  9125.78  95.0186
 31.2436  9064.41  93.9848
 31.4416  8853.69  93.0722
 31.6396  9081.03  94.3058
 31.8376  8913.27  92.9885
 32.0356  8844.83  93.1791
 32.2336  8801.58  92.3562
 32.4316  8738.16  92.4015
 32.6296  8737  92.168
 32.8276  8796.99  92.3164
 33.0256  8559.17  91.1509
 33.2236  8681.15  91.9423
 33.4216  8633.8  91.413
 33.6196  8721.52  92.1725
 33.8176  8710.41  92.2414
 34.0156  8485.2  90.6617
 34.2136  8525.89  90.9236
 34.4116  8420.22  90.4954
 34.6096  8514.78  90.8782
 34.8076  8299.34  90.1352
 35.0056  8338.6  90.0393
 35.2036  8244.5  89.7353
 35.4016  8310.16  90.0111
 35.5996  8194.58  89.4229
 35.7976  8214.68  89.8114
 35.9956  8319.26  90.0223
 36.1936  8094.43  88.6642
 36.3916  8086.55  88.7982
 36.5896  7989.07  89.6836
 36.7876  8116.03  89.3226
 36.9856  7949.58  88.428
 37.1836  8066.02  88.1845
 37.3816  8044.05  88.4196
 37.5796  7908.69  89.3817
 37.7776  7817.05  87.278
 37.9756  7844.58  87.3096
 38.1736  7963.79  88.1616
 38.3716  7899.7  88.0778
 38.5696  7799.81  87.8927
 38.7676  7649.81  86.5754
 38.9656  7740.83  86.727
 39.1636  7770.01  87.1225
 39.3616  7734.91  86.8877
 39.5596  7611.38  87.0083
 39.7576  7604  86.351
 39.9556  7723.6  86.675
 40.1536  7833.56  87.4885
 40.3516  7794.89  87.292
 40.5496  7775.23  87.2203
 40.7476  7831.8  87.7541
 40.9456  7820.48  87.4401
 41.1436  7781.82  86.9514
 41.3416  7726  86.9641
 41.5396  7771.8  87.0353
 41.7376  7765.36  87.2645
 41.9356  7631.25  86.3637
 42.1336  7639.59  86.564
 42.3316  7697.34  87.0766
 42.5296  7609.6  86.11
 42.7276  7653.3  86.5917
 42.9256  7672.25  86.5702
 43.1236  7624.32  86.406
 43.3216  7575.88  85.9893
 43.5196  7537.49  85.6943
 43.7176  7484.08  85.8151
 43.9156  7444.41  85.4809
 44.1136  7461.26  85.1409
 44.3116  7552.04  85.6614
 44.5096  7258.97  84.2956
 44.7076  7441.66  85.27
 44.9056  7443.41  85.166
 45.1036  7289.82  83.9155
 45.3016  7200.89  83.8916
 45.4996  7219.89  83.9408
 45.6976  7143.02  83.656
 45.8956  7262.12  84.1998
 46.0936  7176.95  83.469
 46.2916  7036.61  82.8669
 46.4896  7289.01  84.3654
 46.6876  7087.95  83.8957
 46.8856  7018.47  82.7314
 47.0836  7004.79  82.9194
 47.2816  6950.11  82.4679
 47.4796  7020.94  82.9893
 47.6776  6840.51  82.8426
 47.8756  6903.78  82.4134
 48.0736  6930.18  83.0156
 48.2716  6669.51  81.2591
 48.4696  6886.9  82.1685
 48.6676  6934.12  83.0341
 48.8656  6846.96  82.2518
 49.0636  6881.93  82.4201
 49.2616  6698.53  81.3315
 49.4596  6836.92  81.7338
 49.6576  6650.08  80.8269
 49.8556  6722.55  81.2943
 50.0536  6663.76  81.3785
 50.2516  6677.21  81.5641
 50.4496  6517.28  80.2171
 50.6476  6638.64  80.7048
 50.8456  6591.5  80.492
 51.0436  6379.22  79.6125
 51.2416  6512.29  80.1082
 51.4396  6325.81  79.3462
 51.6376  6331.62  79.2083
 51.8356  6423.87  79.3485
 52.0336  6281.2  79.0435
 52.2316  6303.52  79.5263
 52.4296  6349.48  79.503
 52.6276  6287.54  79.2245
 52.8256  6311.21  78.934
 53.0236  6225.21  79.0574
 53.2216  6085.25  78.3788
 53.4196  6116.57  78.3246
 53.6176  6132.48  78.89
 53.8156  6157.92  78.7342
 54.0136  6281.34  79.6732
 54.2116  6135.22  78.4178
 54.4096  6145.25  78.5279
 54.6076  6140.69  78.8399
 54.8056  6073.25  78.1986
 55.0036  6073.63  78.4682
 55.2016  6069.22  78.0392
 55.3996  6086.69  78.1887
 55.5976  6064.46  78.2409
 55.7956  6032.16  77.8458
 55.9936  6002.18  77.7907
 56.1916  6132.91  78.6445
 56.3896  6018.97  77.9028
 56.5876  5884.78  77.5687
 56.7856  5903.82  77.1937
 56.9836  5967.2  77.3926
 57.1816  5945.6  77.6366
 57.3796  6029.67  77.9666
 57.5776  6035.17  77.9343
 57.7756  5856.16  77.3927
 57.9736  5968.39  77.803
 58.1716  5984.39  78.1366
 58.3696  5896.49  77.3264
 58.5676  6081.73  78.0143
 58.7656  6096.23  78.7679
 58.9636  6062.7  78.5847
 59.1616  5983.16  78.1792
 59.3596  6037.83  77.7939
 59.5576  6074.55  78.0892
 59.7556  6053.13  78.37
 59.9536  6254.28  79.5587
 60.1516  6088.84  79.3513
 60.1996  0.0000000E+00  0.0000000E+00

File: 17_Da_f00003.xye
# /beamlines/bl04/projects/cycle2025-II/20250340211-lsimonelli/DATA/IS17_D/17_Da_f00003.xye : mythproc.py merge -s 0.006 -l 0.5 -f /beamlines/bl04/inhouse/ff/FlatField/ff_20Nov2024rod8mm60s_17keV.raw -b True -c true -o xye /beamlines/bl04/projects/cycle2025-II/20250340211-lsimonelli/DATA/IS17_D/17_Da_00003.dat
# IsMon = [6766078, 6764372, 6768728]  IsPos = [-1.5000, -2.4885, -3.4988]
# Wave = 0.4962  CalPath /beamlines/bl04/projects/cycle2025-II/20250340211-lsimonelli/DATA/Align/Si_Pos1_25keV_f00001.cal
# Date = 2025-09-23_18:24:14 Dt = 4.8000  Bin = 0.0060  <imon> = 6766393 +/- 1792 (Min/Max) 6764372 / 6768728
# icurr 251.4779  mocoIn 1.7155E-05  mocoOut 0.8049  i15 7.07217e+06  imon 6.76639e+06  i7 5.0000  iEMpd_timer 4.8000  iEMpd_1 3.5351E-08  iEMpd_2 7.8333E-08  iEMpd_3 1.6157E-08  iEMpd_4 4.6719E-08  iEMhp_timer 4.8000  iEMhp_1 4.9142E-06  iEMhp_2 -2.5048E-08  iEMhp_3 -2.2456E-08  iEMhp_4 -2.1008E-08
#      9776
 1.7416  71167.5  266.855
 1.9396  46070.2  214.981
 2.1376  32577.6  180.778
 2.3356  28876  169.84
 2.5336  27197.5  165.41
 2.7316  25321  159.71
 2.9296  24365.3  156.845
 3.1276  23714.6  154.283
 3.3256  23290.9  152.576
 3.5236  25324.1  159.049
 3.7216  23093.7  152.958
 3.9196  22660.8  150.752
 4.1176  22433.3  149.766
 4.3156  23593.4  153.745
 4.5136  25989.5  160.368
 4.7116  27134.2  164.988
 4.9096  26367.6  162.081
 5.1076  26093.7  161.81
 5.3056  26444.2  162.62
 5.5036  26035.3  161.344
 5.7016  26305.1  162.058
 5.8996  26975.6  163.333
 6.0976  27674.8  166.861
 6.2956  28138.8  167.598
 6.4936  28788.6  168.729
 6.6916  29428.1  171.581
 6.8896  30194.5  173.664
 7.0876  31436.8  177.838
 7.2856  31083.5  175.982
 7.4836  31664  176.956
 7.6816  32183.1  178.934
 7.8796  33510.3  182.58
 8.0776  35083.9  187.791
 8.2756  36930.3  191.263
 8.4736  37237.1  191.877
 8.6716  36702.2  191.139
 8.8696  36815.7  191.88
 9.0676  35666  188.23
 9.2656  34716.7  186.389
 9.4636  34176.6  183.356
 9.6616  33355.7  181.906
 9.8596  31922.7  177.461
 10.0576  30178.3  173.201
 10.2556  28964.9  170.102
 10.4536  28063.6  167.053
 10.6516  27279.3  164.886
 10.8496  26755.2  162.703
 11.0476  25910.7  160.107
 11.2456  25328.9  158.863
 11.4436  25387.3  158.229
 11.6416  26211.2  161.137
 11.8396  23947.8  154.219
 12.0376  24063.2  154.218
 12.2356  23341.3  152.327
 12.4336  23567.9  152.59
 12.6316  23237.2  151.777
 12.8296  23420.3  152.019
 13.0276  24105.7  154.405
 13.2256  24200.2  155.069
 13.4236  23965.4  154.087
 13.6216  23839.6  153.697
 13.8196  23866.2  153.556
 14.0176  23498.1  152.652
 14.2156  22884.9  149.703
 14.4136  21935.5  147.916
 14.6116  21636.8  146.125
 14.8096  20893.2  143.573
 15.0076  19725.5  143.251
 15.2056  19209.8  137.283
 15.4036  18500.5  135.544
 15.6016  18171.2  133.424
 15.7996  17517.6  131.269
 15.9976  16880.5  131.75
 16.1956  16304.2  127.396
 16.3936  16284.9  126.505
 16.5916  15812.2  125.28
 16.7896  15933.5  125.814
 16.9876  15715.5  126.406
 17.1856  15638.8  124.493
 17.3836  15051.8  122.034
 17.5816  14670.9  120.953
 17.7796  14319.7  119.433
 17.9776  14186.6  119.638
 18.1756  14345.5  119.048
 18.3736  13957.8  117.923
 18.5716  13623.9  116.249
 18.7696  13801.9  116.594
 18.9676  13669.9  115.845
 19.1656  13611.8  116.138
 19.3636  13494.2  115.848
 19.5616  13422.2  115.694
 19.7596  13522  115.538
 19.9576  13900  117.194
 20.1556  14410.6  119.865
 20.3536  13514.9  115.463
 20.5516  13157.2  114.36
 20.7496  12771  112.53
 20.9476  12773.2  112.382
 21.1456  12822.1  112.919
 21.3436  12616.6  111.963
 21.5416  12563.1  111.729
 21.7396  12565.4  111.58
 21.9376  12437.1  110.773
 22.1356  12352  110.675
 22.3336  12290.3  110.521
 22.5316  12270.3  110.532
 22.7296  12364.1  110.321
 22.9276  12343.6  110.9
 23.1256  12607.9  111.554
 23.3236  12444.5  111.381
 23.5216  12288.5  110.343
 23.7196  12172.5  109.979
 23.9176  11986.2  108.687
 24.1156  11881.3  108.67
 24.3136  11586.8  108.111
 24.5116  11481.9  107.157
 24.7096  11219.6  105.748
 24.9076  11078.2  105.102
 25.1056  11004.7  104.94
 25.3036  10836.1  103.915
 25.5016  10755.4  103.559
 25.6996  10829.7  103.505
 25.8976  10643.5  103.037
 26.0956  10746  103.549
 26.2936  10589.3  102.452
 26.4916  10755.3  103.13
 26.6896  10328.6  101.35
 26.8876  10242.7  100.785
 27.0856  10292.4  101.031
 27.2836  10170.2  100.373
 27.4816  10201.8  100.453
 27.6796  9961.85  99.6441
 27.8776  9828.95  98.8368
 28.0756  9945.59  99.7062
 28.2736  9890.41  99.0167
 28.4716  9619.96  97.7036
 28.6696  9735.34  98.1353
 28.8676  9609.86  97.8429
 29.0656  9501.57  97.2665
 29.2636  9466.96  96.8008
 29.4616  9436.5  96.9126
 29.6596  9395.46  96.2733
 29.8576  9330.61  96.6181
 30.0556  9362.8  96.6595
 30.2536  9491.66  97.1198
 30.4516  9210.3  95.3234
 30.6496  9246.57  95.2402
 30.8476  9129.42  95.0707
 31.0456  9148.78  95.1313
 31.2436  9184.36  94.5906
 31.4416  8915.53  93.3855
 31.6396  9028.2  94.0176
 31.8376  8808.59  92.4279
 32.0356  8946.53  93.7041
 32.2336  8836.86  92.5287
 32.4316  8790.77  92.6842
 32.6296  8826.99  92.6409
 32.8276  8872.43  92.7003
 33.0256  8729.58  92.0507
 33.2236  8656.87  91.8089
 33.4216  8781.66  92.1587
 33.6196  8715.61  92.1094
 33.8176  8641.54  91.8742
 34.0156  8536.69  90.9383
 34.2136  8529.38  90.9369
 34.4116  8450.61  90.6618
 34.6096  8432.75  90.4495
 34.8076  8280.62  90.0336
 35.0056  8497.97  90.8928
 35.2036  8334.72  90.2266
 35.4016  8312.72  90.0301
 35.5996  8324.3  90.1274
 35.7976  8167.77  89.5491
 35.9956  8305.09  89.9383
 36.1936  8251.27  89.5254
 36.3916  8117.67  88.9673
 36.5896  8080.71  90.1873
 36.7876  8080.08  89.1363
 36.9856  7890.81  88.1115
 37.1836  8085.79  88.3027
 37.3816  8107.35  88.7789
 37.5796  8000.44  89.9018
 37.7776  7851.93  87.4622
 37.9756  7902.44  87.6217
 38.1736  7999.9  88.3484
 38.3716  7895.3  88.0493
 38.5696  7856.38  88.2124
 38.7676  7578.73  86.1635
 38.9656  7766.33  86.8615
 39.1636  7718.34  86.8254
 39.3616  7791.71  87.2011
 39.5596  7700.65  87.505
 39.7576  7693.39  86.8558
 39.9556  7778.16  86.9818
 40.1536  7818.97  87.3992
 40.3516  7846.13  87.5779
 40.5496  7865.77  87.7319
 40.7476  7855.63  87.8904
 40.9456  7910.97  87.9419
 41.1436  7829.33  87.216
 41.3416  7801.28  87.3893
 41.5396  7825.2  87.3338
 41.7376  7715.05  86.9769
 41.9356  7643.48  86.4365
 42.1336  7667.34  86.7167
 42.3316  7657.2  86.8564
 42.5296  7616.14  86.1467
 42.7276  7615.5  86.3789
 42.9256  7680.15  86.6113
 43.1236  7578.15  86.1447
 43.3216  7574.25  85.9784
 43.5196  7517.61  85.6197
 43.7176  7574.63  86.3291
 43.9156  7324.19  84.8037
 44.1136  7436.53  85.0116
 44.3116  7409.01  84.8581
 44.5096  7412.38  85.184
 44.7076  7297.11  84.458
 44.9056  7398.8  84.9078
 45.1036  7292.61  83.9274
 45.3016  7225.82  84.0351
 45.4996  7156.79  83.5727
 45.6976  7044.71  83.0857
 45.8956  7180.75  83.7164
 46.0936  7340.88  84.4038
 46.2916  7160.48  83.5809
 46.4896  7175.96  83.7096
 46.6876  7151.95  84.268
 46.8856  6922.8  82.1751
 47.0836  7024.95  83.0275
 47.2816  6945.33  82.4396
 47.4796  6956.9  82.6113
 47.6776  6966.33  83.5928
 47.8756  6994.17  82.9465
 48.0736  6966.8  83.2366
 48.2716  6754.23  81.7777
 48.4696  6901.52  82.2602
 48.6676  6959.1  83.1862
 48.8656  6767.32  81.7682
 49.0636  6840.92  82.1593
 49.2616  6602.86  80.7532
 49.4596  6894.86  82.086
 49.6576  6624.86  80.6818
 49.8556  6647.69  80.8411
 50.0536  6765.54  81.9965
 50.2516  6621.52  81.2226
 50.4496  6591.69  80.7299
 50.6476  6579.46  80.342
 50.8456  6664.71  80.9449
 51.0436  6361.25  79.5081
 51.2416  6389.98  79.3701
 51.4396  6375.47  79.6693
 51.6376  6430.56  79.8446
 51.8356  6483.12  79.8044
 52.0336  6318.61  79.2704
 52.2316  6369.76  79.9409
 52.4296  6374.28  79.6468
 52.6276  6415.1  80.0272
 52.8256  6416.47  79.607
 53.0236  6198.94  78.8794
 53.2216  6190.89  78.8432
 53.4196  6107.26  78.2533
 53.6176  6197.52  79.3004
 53.8156  6119.63  78.4823
 54.0136  6206.57  79.2013
 54.2116  6149.33  78.5026
 54.4096  6231.94  79.0844
 54.6076  6020.76  78.068
 54.8056  5996.4  77.7039
 55.0036  6089.16  78.5625
 55.2016  6131.34  78.4406
 55.3996  6035.39  77.8669
 55.5976  5998.83  77.8116
 55.7956  6149.09  78.5918
 55.9936  6071.54  78.2355
 56.1916  6211.31  79.1497
 56.3896  6071.23  78.244
 56.5876  5999.44  78.3219
 56.7856  6038.42  78.0657
 56.9836  5979.75  77.4703
 57.1816  6066.72  78.4081
 57.3796  6134.51  78.6478
 57.5776  6078.32  78.2124
 57.7756  5902.74  77.698
 57.9736  5972.69  77.8321
 58.1716  6002.72  78.2662
 58.3696  5919.1  77.4809
 58.5676  6031.23  77.6918
 58.7656  6097.85  78.7816
 58.9636  6140.63  79.0916
 59.1616  5934.22  77.8699
 59.3596  6165.57  78.6302
 59.5576  6271.01  79.3577
 59.7556  6092.95  78.6431
 59.9536  6175.84  79.0739
 60.1516  6076.78  79.2885
 60.1996  0.0000000E+00  0.0000000E+00