Folder: echemistpy/docs/examples/XRD/IS17_D/Data/IS17_D (part 32)

File: 17_Db_f00126.xye
# /beamlines/bl04/projects/cycle2025-II/20250340211-lsimonelli/DATA/IS17_D/17_Db_f00126.xye : mythproc.py merge -s 0.006 -l 0.5 -f /beamlines/bl04/inhouse/ff/FlatField/ff_20Nov2024rod8mm60s_17keV.raw -b True -c true -o xye /beamlines/bl04/projects/cycle2025-II/20250340211-lsimonelli/DATA/IS17_D/17_Db_00126.dat
# IsMon = [6753916, 6749460, 6757308]  IsPos = [-1.4999, -2.4884, -3.4988]
# Wave = 0.4962  CalPath /beamlines/bl04/projects/cycle2025-II/20250340211-lsimonelli/DATA/Align/Si_Pos1_25keV_f00001.cal
# Date = 2025-09-25_04:50:05 Dt = 4.8000  Bin = 0.0060  <imon> = 6753561 +/- 3214 (Min/Max) 6749460 / 6757308
# icurr 250.2118  mocoIn 1.7069E-05  mocoOut 0.8011  i15 7.0774e+06  imon 6.75356e+06  i7 6.6667  iEMpd_timer 4.8000  iEMpd_1 3.5827E-08  iEMpd_2 7.7868E-08  iEMpd_3 1.6040E-08  iEMpd_4 4.9311E-08  iEMhp_timer 4.8000  iEMhp_1 4.8877E-06  iEMhp_2 -2.4483E-08  iEMhp_3 -2.4187E-08  iEMhp_4 -2.0534E-08
#      9776
 1.7416  70429.9  265.455
 1.9396  48679.1  220.973
 2.1376  35720.3  189.288
 2.3356  32168.5  179.253
 2.5336  29640.1  172.67
 2.7316  27122.6  165.319
 2.9296  25990.7  161.986
 3.1276  25558.6  160.17
 3.3256  24901.7  157.772
 3.5236  26240.8  161.76
 3.7216  24155.7  156.425
 3.9196  23869  154.703
 4.1176  23689  153.897
 4.3156  24533.7  156.777
 4.5136  26976.3  163.389
 4.7116  27959.4  167.472
 4.9096  27172.4  164.519
 5.1076  27133.5  164.992
 5.3056  26884.7  163.948
 5.5036  27005.2  164.251
 5.7016  27339.6  165.214
 5.8996  28085.9  166.675
 6.0976  28771  170.115
 6.2956  28993.3  170.12
 6.4936  29575.3  171.009
 6.6916  29932.2  173.027
 6.8896  30586.5  174.755
 7.0876  31825.8  179.015
 7.2856  31672.3  177.627
 7.4836  32096.3  178.155
 7.6816  32956.7  181.037
 7.8796  33706.4  183.108
 8.0776  35207.5  188.126
 8.2756  36793.5  190.916
 8.4736  37289.1  192.022
 8.6716  37000.2  191.922
 8.8696  37905.2  194.71
 9.0676  37120.1  192.004
 9.2656  35786  189.219
 9.4636  34883.5  185.264
 9.6616  34233.7  184.265
 9.8596  33568.4  181.972
 10.0576  31761.3  177.682
 10.2556  31081.1  176.223
 10.4536  29799.6  172.145
 10.6516  29322.7  170.973
 10.8496  28017.2  166.498
 11.0476  27095.9  163.767
 11.2456  26448.3  162.343
 11.4436  27135.9  163.582
 11.6416  26192.2  161.067
 11.8396  25098.1  157.866
 12.0376  24324.5  155.047
 12.2356  24277.9  155.339
 12.4336  24330  155.036
 12.6316  24231.7  154.982
 12.8296  24117  154.243
 13.0276  24616.3  156.037
 13.2256  24671  156.572
 13.4236  24418.7  155.536
 13.6216  24781.1  156.686
 13.8196  26854.3  162.581
 14.0176  23810  153.66
 14.2156  23520.8  151.74
 14.4136  22470.7  149.713
 14.6116  22137.2  147.793
 14.8096  21414.2  145.332
 15.0076  20415.7  145.826
 15.2056  19512.4  138.357
 15.4036  18464.3  135.422
 15.6016  18202.5  133.545
 15.7996  17717.8  132.015
 15.9976  17401.8  133.731
 16.1956  17148.4  130.612
 16.3936  16680.3  128.002
 16.5916  16589.6  128.296
 16.7896  16694.4  128.767
 16.9876  16435.7  129.245
 17.1856  16157.1  126.546
 17.3836  15916.7  125.504
 17.5816  15468.9  124.206
 17.7796  15211.5  123.092
 17.9776  15003.8  123.019
 18.1756  15069.2  122.024
 18.3736  14797.8  121.418
 18.5716  14584  120.273
 18.7696  14517.7  119.57
 18.9676  14346.3  118.66
 19.1656  14098.9  118.212
 19.3636  14026.3  118.115
 19.5616  14094.4  118.559
 19.7596  14435  119.379
 19.9576  14885.2  121.275
 20.1556  14002.7  118.149
 20.3536  13556.4  115.642
 20.5516  13363.6  115.25
 20.7496  13266.3  114.767
 20.9476  13148.6  114.018
 21.1456  13137.5  114.298
 21.3436  13086.7  114.025
 21.5416  12795.5  112.764
 21.7396  12825.8  112.734
 21.9376  12678.6  111.857
 22.1356  12806.2  112.554
 22.3336  12366.7  110.896
 22.5316  12544.8  111.769
 22.7296  12500.6  110.947
 22.9276  12231.3  110.4
 23.1256  12555.2  111.322
 23.3236  12685.4  112.462
 23.5216  12644.2  111.916
 23.7196  12686  112.051
 23.9176  12619.3  111.508
 24.1156  12323.1  110.645
 24.3136  11966.3  109.876
 24.5116  12254.6  110.708
 24.7096  11817.8  108.526
 24.9076  11605  107.57
 25.1056  11218.2  106.222
 25.3036  11092.6  105.137
 25.5016  11111.7  105.253
 25.6996  11090  104.739
 25.8976  11137.6  105.391
 26.0956  10985  104.678
 26.2936  11010.8  104.475
 26.4916  11147.9  104.973
 26.6896  10928.9  104.245
 26.8876  10784.7  103.405
 27.0856  10505.4  102.116
 27.2836  10439.8  101.69
 27.4816  10346.3  101.175
 27.6796  10300.4  101.317
 27.8776  10654.5  102.889
 28.0756  10074.8  100.347
 28.2736  10034.5  99.7322
 28.4716  9849.72  98.8597
 28.6696  9975.25  99.3319
 28.8676  9773.36  98.6742
 29.0656  9749.67  98.5259
 29.2636  9750.98  98.3229
 29.4616  9502.67  97.2512
 29.6596  9610.44  97.3693
 29.8576  9168.82  95.7765
 30.0556  9492.94  97.3232
 30.2536  9468.82  97.0059
 30.4516  9539.08  96.9757
 30.6496  9662.4  97.3412
 30.8476  9502.15  96.972
 31.0456  9492.77  96.8919
 31.2436  9533.77  96.367
 31.4416  9434.17  96.06
 31.6396  9470.88  96.2994
 31.8376  9258.36  94.7169
 32.0356  9384.64  95.9484
 32.2336  9306.61  94.9557
 32.4316  9020.72  93.8862
 32.6296  8953.89  93.3773
 32.8276  9044.58  93.6251
 33.0256  9043.81  93.6814
 33.2236  9070.85  93.96
 33.4216  8809.14  92.2926
 33.6196  8864.14  92.8896
 33.8176  8855.29  93.0045
 34.0156  8807.75  92.3706
 34.2136  8865.63  92.6962
 34.4116  8634.31  91.6496
 34.6096  8676.59  91.7482
 34.8076  8506.16  91.2597
 35.0056  8494.41  90.8638
 35.2036  8605.14  91.6862
 35.4016  8368.1  90.322
 35.5996  8447.64  90.7873
 35.7976  8345.83  90.5155
 35.9956  8449.85  90.7247
 36.1936  8554.84  91.1447
 36.3916  8355.52  90.2649
 36.5896  8335.89  91.1506
 36.7876  8075.48  89.0977
 36.9856  7999.76  88.7134
 37.1836  8087.56  88.312
 37.3816  8054.3  88.488
 37.5796  8110.04  90.5246
 37.7776  8211.8  89.4392
 37.9756  8157.78  89.0258
 38.1736  8201.02  89.4518
 38.3716  8118.07  89.2737
 38.5696  7993.99  88.9726
 38.7676  7850.45  87.6957
 38.9656  8041.27  88.3736
 39.1636  8099.34  88.9769
 39.3616  7879.16  87.6994
 39.5596  7824.39  88.216
 39.7576  7816.59  87.5541
 39.9556  8081.88  88.6647
 40.1536  8026.66  88.5542
 40.3516  8047.23  88.6753
 40.5496  8058.4  89.0118
 40.7476  7963.07  88.4858
 40.9456  8091.41  88.9401
 41.1436  8183.67  89.1565
 41.3416  7834.37  87.5783
 41.5396  7860.84  87.5334
 41.7376  7936.59  88.2182
 41.9356  7918.4  87.9633
 42.1336  8087.12  89.0408
 42.3316  7815.78  87.746
 42.5296  7856.32  87.4842
 42.7276  7940.93  88.1984
 42.9256  7946.74  88.1032
 43.1236  7837.2  87.6003
 43.3216  7871.52  87.5321
 43.5196  7795.14  87.1845
 43.7176  7654.02  86.7802
 43.9156  7657.14  86.7128
 44.1136  7614.33  86.0226
 44.3116  7650.1  86.2311
 44.5096  7593.13  86.2254
 44.7076  7567.48  86.0077
 44.9056  7779.96  87.0612
 45.1036  7601.73  85.6828
 45.3016  7607.94  86.2036
 45.4996  7544.62  85.7868
 45.6976  7411.06  85.2112
 45.8956  7581.24  86.0236
 46.0936  7576.04  85.9921
 46.2916  7600.75  86.1095
 46.4896  7610.92  86.2077
 46.6876  7556.17  86.6077
 46.8856  7500.55  85.5404
 47.0836  7506.3  85.8158
 47.2816  7489.49  85.6142
 47.4796  7513.64  85.8439
 47.6776  7506.89  86.7737
 47.8756  7466.82  85.705
 48.0736  7403.61  85.7986
 48.2716  7351.1  85.3139
 48.4696  7434.04  85.3771
 48.6676  7495.23  86.3319
 48.8656  7408.96  85.548
 49.0636  7493.19  85.9849
 49.2616  7293.91  84.8769
 49.4596  7412.41  85.1101
 49.6576  7337.84  84.9166
 49.8556  7333.57  84.9091
 50.0536  7359.95  85.5201
 50.2516  7370.78  85.7082
 50.4496  7264.56  84.7513
 50.6476  7335.25  84.8295
 50.8456  7399.38  85.2739
 51.0436  7127.14  84.1628
 51.2416  7120.15  83.7806
 51.4396  6868.93  82.6974
 51.6376  7072.49  83.7396
 51.8356  7032.75  83.1152
 52.0336  7002.02  83.4288
 52.2316  6969.69  83.6064
 52.4296  7025.61  83.6378
 52.6276  6860.42  82.7539
 52.8256  6971.8  82.9811
 53.0236  7104.24  84.4469
 53.2216  7088.39  84.3924
 53.4196  6968.39  83.5729
 53.6176  6836.48  83.2724
 53.8156  6984.61  83.8478
 54.0136  6591.63  81.6002
 54.2116  6883.08  83.0115
 54.4096  6650.7  81.6896
 54.6076  6643.22  81.9761
 54.8056  6601.11  81.4988
 55.0036  6542.99  81.558
 55.2016  6689.38  81.952
 55.3996  6364.46  79.9455
 55.5976  6425.95  80.5141
 55.7956  6477.85  80.6617
 55.9936  6554.85  81.2547
 56.1916  6409.9  80.3912
 56.3896  6359.33  80.0551
 56.5876  6316.33  80.3277
 56.7856  6394.35  80.3196
 56.9836  6438.4  80.3693
 57.1816  6450.7  80.814
 57.3796  6326.84  79.8593
 57.5776  6285.54  79.4733
 57.7756  6213.34  79.7033
 57.9736  6216.79  79.3717
 58.1716  6161.49  79.2902
 58.3696  6007.41  78.0656
 58.5676  6088.97  78.0585
 58.7656  5974.84  77.9924
 58.9636  5945.57  77.8253
 59.1616  5964.85  78.0904
 59.3596  5913.85  76.9954
 59.5576  6044.86  77.9055
 59.7556  5895.81  77.3522
 59.9536  5981.13  77.8093
 60.1516  5781.92  77.3328
 60.1996  0.0000000E+00  0.0000000E+00

File: 17_Db_f00128.xye
# /beamlines/bl04/projects/cycle2025-II/20250340211-lsimonelli/DATA/IS17_D/17_Db_f00128.xye : mythproc.py merge -s 0.006 -l 0.5 -f /beamlines/bl04/inhouse/ff/FlatField/ff_20Nov2024rod8mm60s_17keV.raw -b True -c true -o xye /beamlines/bl04/projects/cycle2025-II/20250340211-lsimonelli/DATA/IS17_D/17_Db_00128.dat
# IsMon = [6770490, 6773209, 6772577]  IsPos = [-1.4999, -2.4884, -3.4988]
# Wave = 0.4962  CalPath /beamlines/bl04/projects/cycle2025-II/20250340211-lsimonelli/DATA/Align/Si_Pos1_25keV_f00001.cal
# Date = 2025-09-25_05:23:11 Dt = 4.8000  Bin = 0.0060  <imon> = 6772092 +/- 1162 (Min/Max) 6770490 / 6773209
# icurr 251.7747  mocoIn 1.7178E-05  mocoOut 0.8060  i15 7.09484e+06  imon 6.77209e+06  i7 4.6667  iEMpd_timer 4.8000  iEMpd_1 3.5649E-08  iEMpd_2 7.7625E-08  iEMpd_3 1.8015E-08  iEMpd_4 4.8577E-08  iEMhp_timer 4.8000  iEMhp_1 4.9194E-06  iEMhp_2 -2.5467E-08  iEMhp_3 -2.3850E-08  iEMhp_4 -2.0709E-08
#      9776
 1.7416  70653.2  265.914
 1.9396  49182.9  222.145
 2.1376  36060.8  190.215
 2.3356  32026.6  178.883
 2.5336  29815.7  173.206
 2.7316  27139.5  165.351
 2.9296  26104  162.316
 3.1276  25563.2  160.166
 3.3256  24884.8  157.689
 3.5236  26436.4  162.328
 3.7216  24241  156.707
 3.9196  23722.5  154.218
 4.1176  23738.9  154.064
 4.3156  24866.5  157.849
 4.5136  27008.1  163.469
 4.7116  27825.7  167.072
 4.9096  27183.8  164.563
 5.1076  27067.4  164.797
 5.3056  27182.6  164.867
 5.5036  27125.1  164.596
 5.7016  27431.2  165.489
 5.8996  28181.9  166.958
 6.0976  29032.7  170.89
 6.2956  29034.2  170.239
 6.4936  29811.3  171.682
 6.6916  30062.6  173.403
 6.8896  30808.5  175.377
 7.0876  31908.1  179.245
 7.2856  31788.6  177.949
 7.4836  32230.8  178.531
 7.6816  33112.4  181.463
 7.8796  33812.8  183.38
 8.0776  35277.2  188.298
 8.2756  37221.1  192.025
 8.4736  37744.8  193.179
 8.6716  37216.6  192.443
 8.8696  37974  194.924
 9.0676  37204  192.245
 9.2656  36348.6  190.74
 9.4636  35382.7  186.625
 9.6616  34567.1  185.197
 9.8596  33961.9  183.005
 10.0576  31675.5  177.409
 10.2556  30988.8  175.939
 10.4536  30322.2  173.629
 10.6516  29685  172.003
 10.8496  28146.8  166.901
 11.0476  27524.2  165.059
 11.2456  26907.1  163.737
 11.4436  27783.6  165.522
 11.6416  26362.4  161.578
 11.8396  25486.9  159.083
 12.0376  24707.5  156.279
 12.2356  24285.9  155.346
 12.4336  24286.6  154.902
 12.6316  24228.6  154.982
 12.8296  24239.1  154.614
 13.0276  24805.5  156.622
 13.2256  24920.5  157.362
 13.4236  24765.3  156.639
 13.6216  24980.6  157.316
 13.8196  27089.2  163.289
 14.0176  24077.8  154.522
 14.2156  23724  152.401
 14.4136  22488.6  149.778
 14.6116  22002.8  147.348
 14.8096  21459.6  145.492
 15.0076  20445.8  145.931
 15.2056  19447.5  138.119
 15.4036  18665.3  136.137
 15.6016  18333.7  134.016
 15.7996  17835  132.457
 15.9976  17543.9  134.284
 16.1956  17382.1  131.52
 16.3936  16884  128.807
 16.5916  16661.7  128.613
 16.7896  16758.5  129.034
 16.9876  16546.3  129.677
 17.1856  16212  126.731
 17.3836  15890.9  125.383
 17.5816  15690.5  125.08
 17.7796  15266.7  123.3
 17.9776  15013.4  123.062
 18.1756  15367.2  123.227
 18.3736  14853.7  121.638
 18.5716  14706.7  120.787
 18.7696  14559.9  119.743
 18.9676  14541.2  119.468
 19.1656  14164.8  118.497
 19.3636  14061.5  118.259
 19.5616  14112.3  118.642
 19.7596  14481.7  119.574
 19.9576  15030.4  121.864
 20.1556  13941.6  117.886
 20.3536  13711.2  116.293
 20.5516  13547.3  116.035
 20.7496  13237.2  114.642
 20.9476  13253.8  114.479
 21.1456  13201.9  114.565
 21.3436  13032.8  113.793
 21.5416  12974.5  113.549
 21.7396  12757.3  112.435
 21.9376  12651.3  111.738
 22.1356  12890  112.911
 22.3336  12491.8  111.436
 22.5316  12642.4  112.197
 22.7296  12618.7  111.449
 22.9276  12440.5  111.333
 23.1256  12629.5  111.652
 23.3236  12590.5  112.063
 23.5216  12657.3  111.996
 23.7196  12474.4  111.136
 23.9176  12684.4  111.811
 24.1156  12412.3  111.068
 24.3136  12049.3  110.242
 24.5116  12305.4  110.919
 24.7096  11794.9  108.397
 24.9076  11634.9  107.704
 25.1056  11342.4  106.79
 25.3036  11260.1  105.921
 25.5016  11192  105.636
 25.6996  11276.4  105.616
 25.8976  11246.2  105.916
 26.0956  11023.4  104.866
 26.2936  11084.5  104.814
 26.4916  11199  105.215
 26.6896  10910.9  104.161
 26.8876  10839.2  103.673
 27.0856  10564.7  102.409
 27.2836  10431.4  101.65
 27.4816  10477.7  101.815
 27.6796  10412.2  101.857
 27.8776  10529.7  102.294
 28.0756  10170  100.813
 28.2736  10240.3  100.741
 28.4716  10003.5  99.6196
 28.6696  10043.4  99.6697
 28.8676  9866.4  99.1375
 29.0656  9815.87  98.8559
 29.2636  9773.44  98.4351
 29.4616  9503.61  97.2449
 29.6596  9382.44  96.2007
 29.8576  9294.52  96.4264
 30.0556  9394.05  96.8184
 30.2536  9549.79  97.4125
 30.4516  9486.82  96.7397
 30.6496  9683.54  97.463
 30.8476  9583.32  97.4092
 31.0456  9627.32  97.6002
 31.2436  9551.7  96.4739
 31.4416  9409.64  95.9273
 31.6396  9400.76  95.9238
 31.8376  9367.05  95.2722
 32.0356  9404.89  96.0455
 32.2336  9327.71  95.0562
 32.4316  9028.59  93.9157
 32.6296  9061.3  93.9275
 32.8276  9094.23  93.8819
 33.0256  8994.71  93.4276
 33.2236  9046.22  93.8455
 33.4216  8985.04  93.2142
 33.6196  8954.67  93.3477
 33.8176  8965.5  93.5755
 34.0156  8813.02  92.3987
 34.2136  8941.6  93.0973
 34.4116  8710.72  92.0477
 34.6096  8739.27  92.0801
 34.8076  8629.24  91.9187
 35.0056  8560.95  91.2212
 35.2036  8769.07  92.5568
 35.4016  8511.37  91.0904
 35.5996  8469.65  90.901
 35.7976  8405.47  90.8311
 35.9956  8617.97  91.6258
 36.1936  8478.82  90.713
 36.3916  8305.29  89.9951
 36.5896  8408.52  91.5433
 36.7876  8204.78  89.8175
 36.9856  8066.97  89.0848
 37.1836  8132.03  88.5497
 37.3816  8137.64  88.9472
 37.5796  8130.97  90.6386
 37.7776  8269.42  89.7642
 37.9756  8268.11  89.6404
 38.1736  8165.84  89.2726
 38.3716  8141.2  89.4142
 38.5696  8087.01  89.4871
 38.7676  7952.27  88.255
 38.9656  8082.77  88.5883
 39.1636  8007.59  88.4564
 39.3616  8085  88.8166
 39.5596  7981.6  89.0889
 39.7576  7967.13  88.3938
 39.9556  8059.76  88.543
 40.1536  8059.16  88.7358
 40.3516  8080.81  88.8684
 40.5496  8134.21  89.4117
 40.7476  8115.66  89.3149
 40.9456  8050.23  88.7164
 41.1436  8090.58  88.6571
 41.3416  7957.03  88.257
 41.5396  7989.5  88.245
 41.7376  8005.87  88.5975
 41.9356  8004.16  88.4408
 42.1336  8142.63  89.3591
 42.3316  7981.86  88.6683
 42.5296  8020.67  88.393
 42.7276  7862.99  87.7678
 42.9256  7913.78  87.9192
 43.1236  7827.86  87.5407
 43.3216  7899.24  87.6922
 43.5196  7823.82  87.3291
 43.7176  7875.72  88.0223
 43.9156  7588.25  86.3178
 44.1136  7672.81  86.3455
 44.3116  7705.03  86.5426
 44.5096  7669.14  86.6521
 44.7076  7741.29  86.9865
 44.9056  7818.26  87.2909
 45.1036  7757.9  86.5673
 45.3016  7768.86  87.1391
 45.4996  7597.55  86.1172
 45.6976  7574.79  86.1629
 45.8956  7649.09  86.3966
 46.0936  7706.55  86.7262
 46.2916  7606.79  86.135
 46.4896  7635.87  86.3417
 46.6876  7528.32  86.4387
 46.8856  7618.78  86.2117
 47.0836  7461.38  85.567
 47.2816  7435.6  85.2954
 47.4796  7581.65  86.2415
 47.6776  7571.06  87.1476
 47.8756  7511.76  85.9654
 48.0736  7539.4  86.5846
 48.2716  7428.94  85.7617
 48.4696  7526.82  85.8967
 48.6676  7585.15  86.8419
 48.8656  7568.68  86.4754
 49.0636  7587.52  86.5206
 49.2616  7298.61  84.8977
 49.4596  7413.23  85.1159
 49.6576  7431.31  85.4466
 49.8556  7459.83  85.6342
 50.0536  7410.33  85.8082
 50.2516  7297.46  85.2939
 50.4496  7327.11  85.1076
 50.6476  7359.48  84.9682
 50.8456  7428.23  85.4424
 51.0436  7146.12  84.261
 51.2416  7081.19  83.5548
 51.4396  6998.36  83.471
 51.6376  6991.51  83.2479
 51.8356  7123.08  83.6299
 52.0336  7123.05  84.1693
 52.2316  7132.21  84.5967
 52.4296  7011.99  83.5729
 52.6276  6907.05  83.0535
 52.8256  7077.72  83.6276
 53.0236  7127.26  84.5713
 53.2216  7049.82  84.152
 53.4196  7021.91  83.8689
 53.6176  6874.59  83.5044
 53.8156  6972.36  83.763
 54.0136  6643.59  81.9343
 54.2116  6858.63  82.8769
 54.4096  6658.16  81.7257
 54.6076  6644.26  81.9907
 54.8056  6601.83  81.514
 55.0036  6607.94  81.9459
 55.2016  6709.11  82.0676
 55.3996  6436.26  80.3924
 55.5976  6573.3  81.443
 55.7956  6508.02  80.8264
 55.9936  6566.25  81.3216
 56.1916  6512.02  81.0156
 56.3896  6454.95  80.6487
 56.5876  6337.52  80.4737
 56.7856  6324.11  79.8895
 56.9836  6425.98  80.3054
 57.1816  6556.4  81.4777
 57.3796  6417.21  80.4129
 57.5776  6396.66  80.1638
 57.7756  6256.23  79.9621
 57.9736  6296.72  79.8968
 58.1716  6202.91  79.558
 58.3696  6010.45  78.0705
 58.5676  6065.43  77.8923
 58.7656  6082.37  78.6855
 58.9636  6101.61  78.835
 59.1616  5962.23  78.0658
 59.3596  6148.23  78.5309
 59.5576  6153.28  78.6201
 59.7556  5938.05  77.6475
 59.9536  6000.8  77.9559
 60.1516  5986.65  78.709
 60.1996  0.0000000E+00  0.0000000E+00