Folder: echemistpy/docs/examples/XRD/IS17_D/Data/IS17_D (part 34)

File: 17_Db_f00151.xye
# /beamlines/bl04/projects/cycle2025-II/20250340211-lsimonelli/DATA/IS17_D/17_Db_f00151.xye : mythproc.py merge -s 0.006 -l 0.5 -f /beamlines/bl04/inhouse/ff/FlatField/ff_20Nov2024rod8mm60s_17keV.raw -b True -c true -o xye /beamlines/bl04/projects/cycle2025-II/20250340211-lsimonelli/DATA/IS17_D/17_Db_00151.dat
# IsMon = [6750952, 6753038, 6754289]  IsPos = [-1.4999, -2.4883, -3.4988]
# Wave = 0.4962  CalPath /beamlines/bl04/projects/cycle2025-II/20250340211-lsimonelli/DATA/Align/Si_Pos1_25keV_f00001.cal
# Date = 2025-09-25_11:48:53 Dt = 4.8000  Bin = 0.0060  <imon> = 6752760 +/- 1376 (Min/Max) 6750952 / 6754289
# icurr 250.4989  mocoIn 1.7085E-05  mocoOut 0.8016  i15 7.07905e+06  imon 6.75276e+06  i7 4.0000  iEMpd_timer 4.8000  iEMpd_1 3.3588E-08  iEMpd_2 7.8818E-08  iEMpd_3 1.6717E-08  iEMpd_4 4.6869E-08  iEMhp_timer 4.8000  iEMhp_1 4.8922E-06  iEMhp_2 -2.5992E-08  iEMhp_3 -2.3707E-08  iEMhp_4 -1.9735E-08
#      9776
 1.7416  70811.3  266.216
 1.9396  48970.3  221.672
 2.1376  36021.4  190.114
 2.3356  31980.6  178.757
 2.5336  29750  173.017
 2.7316  27549.3  166.601
 2.9296  26186.7  162.592
 3.1276  25784.8  160.869
 3.3256  24997.5  158.075
 3.5236  26369.2  162.137
 3.7216  24353.9  157.068
 3.9196  23759.2  154.346
 4.1176  23986  154.863
 4.3156  24938.7  158.074
 4.5136  27123.2  163.82
 4.7116  28185.9  168.15
 4.9096  27354.6  165.08
 5.1076  27262.9  165.389
 5.3056  27297.8  165.211
 5.5036  27183.7  164.777
 5.7016  27756.3  166.466
 5.8996  28116.1  166.766
 6.0976  28946.6  170.638
 6.2956  29130  170.517
 6.4936  29810.3  171.69
 6.6916  30056.1  173.39
 6.8896  30887.2  175.61
 7.0876  31756.2  178.821
 7.2856  31681.1  177.648
 7.4836  31995.4  177.961
 7.6816  32694.2  180.317
 7.8796  33712.6  183.1
 8.0776  35428  188.699
 8.2756  36646.1  190.536
 8.4736  37657.7  192.955
 8.6716  36930.4  191.709
 8.8696  37601.2  193.957
 9.0676  36879.4  191.405
 9.2656  35657.9  188.915
 9.4636  34835.3  185.167
 9.6616  34224.4  184.27
 9.8596  33508.1  181.792
 10.0576  31439.6  176.753
 10.2556  30853.9  175.558
 10.4536  29644.6  171.684
 10.6516  28973.3  169.937
 10.8496  28003.6  166.469
 11.0476  27290.3  164.352
 11.2456  26579.3  162.736
 11.4436  26746.4  162.41
 11.6416  26557.8  162.176
 11.8396  25020.5  157.623
 12.0376  24592.3  155.904
 12.2356  23963.6  154.318
 12.4336  23929.3  153.755
 12.6316  24079.4  154.508
 12.8296  24047.3  154.003
 13.0276  24351.6  155.185
 13.2256  24452.9  155.878
 13.4236  24678.3  156.364
 13.6216  24864.4  156.95
 13.8196  26780.7  162.342
 14.0176  23809.5  153.654
 14.2156  23488  151.641
 14.4136  22313.3  149.191
 14.6116  22002.3  147.34
 14.8096  21259.2  144.805
 15.0076  20237.8  145.183
 15.2056  19440  138.089
 15.4036  18763.4  136.501
 15.6016  18256.6  133.732
 15.7996  17820.3  132.39
 15.9976  17389  133.69
 16.1956  17381.7  131.504
 16.3936  16738.9  128.243
 16.5916  16464.5  127.843
 16.7896  16492.7  128.002
 16.9876  16429  129.222
 17.1856  16138.4  126.457
 17.3836  15897.2  125.417
 17.5816  15575.6  124.628
 17.7796  15302.2  123.458
 17.9776  14955.1  122.815
 18.1756  15019.9  121.828
 18.3736  14801.1  121.417
 18.5716  14616.5  120.407
 18.7696  14546  119.679
 18.9676  14492.8  119.265
 19.1656  14172.4  118.525
 19.3636  14047.3  118.194
 19.5616  13965  118.02
 19.7596  14249.6  118.616
 19.9576  14406.2  119.3
 20.1556  14219.8  119.061
 20.3536  13664.9  116.099
 20.5516  13406.9  115.439
 20.7496  13067.5  113.902
 20.9476  13169.8  114.114
 21.1456  12979.7  113.605
 21.3436  13019.8  113.737
 21.5416  12891.3  113.186
 21.7396  12663.7  112.025
 21.9376  12690.8  111.913
 22.1356  12738.7  112.249
 22.3336  12447.7  111.241
 22.5316  12474.2  111.45
 22.7296  12460.6  110.761
 22.9276  12261.6  110.532
 23.1256  12482.2  110.997
 23.3236  12714  112.605
 23.5216  12620.2  111.826
 23.7196  12571  111.561
 23.9176  12534  111.143
 24.1156  12413.6  111.07
 24.3136  12090.2  110.431
 24.5116  11919.9  109.162
 24.7096  11752.9  108.216
 24.9076  11594.5  107.518
 25.1056  11368.2  106.921
 25.3036  11167.7  105.489
 25.5016  11116.3  105.28
 25.6996  11095.6  104.769
 25.8976  11086.1  105.153
 26.0956  10836.8  103.971
 26.2936  11024.5  104.534
 26.4916  11157.1  105.004
 26.6896  10815  103.704
 26.8876  10677.9  102.893
 27.0856  10569.9  102.431
 27.2836  10351  101.316
 27.4816  10380.5  101.343
 27.6796  10207.5  100.856
 27.8776  10437.1  101.846
 28.0756  10098.3  100.459
 28.2736  10163.5  100.355
 28.4716  9944.1  99.3293
 28.6696  9863.99  98.7785
 28.8676  9792.23  98.7673
 29.0656  9769.43  98.6355
 29.2636  9783.05  98.4887
 29.4616  9517.67  97.3213
 29.6596  9503.05  96.8098
 29.8576  9339.21  96.6556
 30.0556  9238.76  96.0121
 30.2536  9384.42  96.565
 30.4516  9572.92  97.1748
 30.6496  9424.46  96.1508
 30.8476  9633.18  97.6488
 31.0456  9444.77  96.6622
 31.2436  9495.98  96.1911
 31.4416  9464.77  96.2169
 31.6396  9312.09  95.4741
 31.8376  9404.8  95.4765
 32.0356  9292.45  95.4815
 32.2336  9304.12  94.9366
 32.4316  9030.29  93.886
 32.6296  8938.18  93.2832
 32.8276  8970.6  93.243
 33.0256  8880.07  92.8318
 33.2236  8935.92  93.2704
 33.4216  8910.83  92.8239
 33.6196  8777.06  92.4198
 33.8176  8815.1  92.7833
 34.0156  8795.64  92.3124
 34.2136  8799.84  92.3589
 34.4116  8520.25  91.1476
 34.6096  8673.77  91.7344
 34.8076  8585.82  91.6836
 35.0056  8531.64  91.0705
 35.2036  8714.27  92.2655
 35.4016  8465.94  90.8526
 35.5996  8420.72  90.6421
 35.7976  8306.75  90.2947
 35.9956  8674.38  91.9242
 36.1936  8448.86  90.5621
 36.3916  8364.03  90.2647
 36.5896  8269  90.7806
 36.7876  8090.71  89.1844
 36.9856  7929.52  88.3189
 37.1836  8094.99  88.3495
 37.3816  8076.95  88.6113
 37.5796  8162.22  90.8131
 37.7776  8198.78  89.3732
 37.9756  8210.96  89.3276
 38.1736  8210.98  89.515
 38.3716  8135.1  89.3783
 38.5696  7970.81  88.8472
 38.7676  7924.9  88.0989
 38.9656  7943.69  87.8381
 39.1636  7995.69  88.4006
 39.3616  8000.13  88.3501
 39.5596  7895.89  88.612
 39.7576  7827.55  87.6181
 39.9556  7982.63  88.1207
 40.1536  8035.5  88.6065
 40.3516  8003.56  88.4406
 40.5496  8015.09  88.7551
 40.7476  8063.55  89.0225
 40.9456  8074.56  88.8487
 41.1436  8030.16  88.3259
 41.3416  7865.17  87.71
 41.5396  7945.36  87.9325
 41.7376  7820.68  87.5705
 41.9356  7823.92  87.4389
 42.1336  8119.45  89.2256
 42.3316  7897.67  88.2018
 42.5296  7858.18  87.5013
 42.7276  7850.07  87.691
 42.9256  7957.8  88.1618
 43.1236  7803.04  87.4059
 43.3216  7896.99  87.6799
 43.5196  7773.15  87.0461
 43.7176  7756.48  87.3525
 43.9156  7488.39  85.7452
 44.1136  7560.38  85.7054
 44.3116  7677.19  86.381
 44.5096  7649.68  86.5418
 44.7076  7719.57  86.8646
 44.9056  7694.43  86.5955
 45.1036  7672.33  86.0902
 45.3016  7627.66  86.3417
 45.4996  7591  86.0745
 45.6976  7439.92  85.389
 45.8956  7629.21  86.2886
 46.0936  7665.94  86.4385
 46.2916  7595.08  86.0723
 46.4896  7585.57  86.0359
 46.6876  7502.14  86.3018
 46.8856  7494.16  85.4974
 47.0836  7512.61  85.8612
 47.2816  7432.27  85.279
 47.4796  7529.64  85.9461
 47.6776  7302.11  85.5818
 47.8756  7379.62  85.2013
 48.0736  7413.03  85.8594
 48.2716  7371.37  85.4597
 48.4696  7492.63  85.7352
 48.6676  7361.07  85.5556
 48.8656  7385.6  85.4215
 49.0636  7498.77  86.0179
 49.2616  7281.1  84.6828
 49.4596  7305.12  84.647
 49.6576  7351.04  84.9891
 49.8556  7396.13  85.2694
 50.0536  7244.78  84.8477
 50.2516  7369.73  85.7064
 50.4496  7325.64  85.1008
 50.6476  7332.55  84.812
 50.8456  7266.2  84.5054
 51.0436  7108.44  84.0449
 51.2416  7038.65  83.2931
 51.4396  7057.54  83.8225
 51.6376  7077.53  83.7616
 51.8356  7092.03  83.4631
 52.0336  7074.84  83.8891
 52.2316  6980.25  83.6874
 52.4296  6949.53  83.1951
 52.6276  6920.17  83.1334
 52.8256  7071.36  83.571
 53.0236  7034.29  84.0243
 53.2216  6971.8  83.6854
 53.4196  6986.1  83.667
 53.6176  6965.08  84.0588
 53.8156  6851.16  83.0259
 54.0136  6710.47  82.3486
 54.2116  6803.14  82.5439
 54.4096  6662.04  81.7566
 54.6076  6671.78  82.1585
 54.8056  6504.56  80.9026
 55.0036  6544.04  81.5587
 55.2016  6697.01  82.0067
 55.3996  6394.34  80.1166
 55.5976  6424.35  80.5124
 55.7956  6501.08  80.7946
 55.9936  6558.78  81.2804
 56.1916  6441.57  80.5843
 56.3896  6346.99  79.9787
 56.5876  6321.62  80.3727
 56.7856  6331.24  79.9325
 56.9836  6500.29  80.744
 57.1816  6410.19  80.5634
 57.3796  6286.18  79.5996
 57.5776  6332.3  79.7683
 57.7756  6227.37  79.7891
 57.9736  6259.38  79.6388
 58.1716  6123.27  79.0444
 58.3696  5923.34  77.505
 58.5676  6017.12  77.577
 58.7656  6016.02  78.2542
 58.9636  5963.12  77.9353
 59.1616  6032.87  78.5226
 59.3596  6043.2  77.8508
 59.5576  5897.56  76.9631
 59.7556  5979.46  77.9118
 59.9536  5959.4  77.6805
 60.1516  5982.82  78.6778
 60.1996  0.0000000E+00  0.0000000E+00

File: 17_Db_f00152.xye
# /beamlines/bl04/projects/cycle2025-II/20250340211-lsimonelli/DATA/IS17_D/17_Db_f00152.xye : mythproc.py merge -s 0.006 -l 0.5 -f /beamlines/bl04/inhouse/ff/FlatField/ff_20Nov2024rod8mm60s_17keV.raw -b True -c true -o xye /beamlines/bl04/projects/cycle2025-II/20250340211-lsimonelli/DATA/IS17_D/17_Db_00152.dat
# IsMon = [6764281, 6759994, 6761449]  IsPos = [-1.4999, -2.4883, -3.4988]
# Wave = 0.4962  CalPath /beamlines/bl04/projects/cycle2025-II/20250340211-lsimonelli/DATA/Align/Si_Pos1_25keV_f00001.cal
# Date = 2025-09-25_12:05:26 Dt = 4.8000  Bin = 0.0060  <imon> = 6761908 +/- 1780 (Min/Max) 6759994 / 6764281
# icurr 251.2962  mocoIn 1.7137E-05  mocoOut 0.8043  i15 7.08623e+06  imon 6.76191e+06  i7 3.0000  iEMpd_timer 4.8000  iEMpd_1 3.4841E-08  iEMpd_2 7.7931E-08  iEMpd_3 1.7970E-08  iEMpd_4 4.8438E-08  iEMhp_timer 4.8000  iEMhp_1 4.9081E-06  iEMhp_2 -2.4328E-08  iEMhp_3 -2.4283E-08  iEMhp_4 -2.0803E-08
#      9776
 1.7416  70811.5  266.134
 1.9396  49091.1  221.876
 2.1376  36018.2  190.047
 2.3356  31895.7  178.465
 2.5336  29943.3  173.525
 2.7316  27666.8  166.944
 2.9296  26375.7  163.165
 3.1276  25959.4  161.394
 3.3256  25473.9  159.563
 3.5236  26537.3  162.642
 3.7216  24366.5  157.111
 3.9196  24043.7  155.261
 4.1176  23790.5  154.219
 4.3156  24976.7  158.196
 4.5136  27126.9  163.833
 4.7116  28183.9  168.141
 4.9096  27422.9  165.282
 5.1076  27353.5  165.654
 5.3056  27321.6  165.288
 5.5036  27209.1  164.863
 5.7016  27652.3  166.156
 5.8996  28253.4  167.173
 6.0976  29011.7  170.813
 6.2956  29078.9  170.376
 6.4936  30175.7  172.728
 6.6916  30421  174.43
 6.8896  30950.1  175.79
 7.0876  32005.9  179.52
 7.2856  31678.6  177.648
 7.4836  32270.2  178.731
 7.6816  33026.9  181.236
 7.8796  33878.4  183.589
 8.0776  35159.6  188.012
 8.2756  36784  190.92
 8.4736  37777.6  193.292
 8.6716  37087.1  192.15
 8.8696  37764.3  194.362
 9.0676  37039.1  191.801
 9.2656  35887.4  189.5
 9.4636  34966.9  185.514
 9.6616  34385.4  184.699
 9.8596  33594.7  182.008
 10.0576  31518.6  176.98
 10.2556  30609  174.849
 10.4536  29740.4  171.948
 10.6516  29232.1  170.673
 10.8496  27974.3  166.375
 11.0476  27258  164.25
 11.2456  26430.2  162.285
 11.4436  26993.9  163.159
 11.6416  26679.8  162.55
 11.8396  25057.8  157.723
 12.0376  24594.8  155.916
 12.2356  24029.5  154.536
 12.4336  23984.5  153.936
 12.6316  24150.4  154.719
 12.8296  24064  154.068
 13.0276  24453.5  155.518
 13.2256  24523.8  156.102
 13.4236  24642.6  156.247
 13.6216  24830.9  156.833
 13.8196  26876.3  162.616
 14.0176  23921.7  154.027
 14.2156  23570.8  151.918
 14.4136  22482.7  149.754
 14.6116  22137.9  147.791
 14.8096  21382.4  145.238
 15.0076  20487.6  146.075
 15.2056  19485.6  138.277
 15.4036  18610.8  135.967
 15.6016  18191.9  133.516
 15.7996  17756  132.179
 15.9976  17523.5  134.193
 16.1956  17059.9  130.292
 16.3936  16659.5  127.936
 16.5916  16631.8  128.482
 16.7896  16628.6  128.525
 16.9876  16482.2  129.431
 17.1856  16074.2  126.203
 17.3836  15790.2  124.982
 17.5816  15455.6  124.137
 17.7796  15326.6  123.547
 17.9776  14911.3  122.644
 18.1756  15031.3  121.872
 18.3736  14832.4  121.556
 18.5716  14555.8  120.163
 18.7696  14695.1  120.292
 18.9676  14537.5  119.427
 19.1656  14031.8  117.94
 19.3636  14102.5  118.436
 19.5616  13961.6  118.006
 19.7596  14447.7  119.419
 19.9576  14621.9  120.187
 20.1556  14309.4  119.436
 20.3536  13715.7  116.317
 20.5516  13510.5  115.883
 20.7496  13205.2  114.51
 20.9476  13150.1  114.008
 21.1456  13126.5  114.253
 21.3436  13050  113.865
 21.5416  12782.6  112.709
 21.7396  12710.5  112.228
 21.9376  12560.2  111.343
 22.1356  12677.5  111.983
 22.3336  12444.8  111.245
 22.5316  12413.9  111.197
 22.7296  12528.6  111.07
 22.9276  12391.3  111.131
 23.1256  12604.3  111.551
 23.3236  12783.5  112.905
 23.5216  12550.1  111.502
 23.7196  12493.7  111.203
 23.9176  12695.9  111.84
 24.1156  12318.6  110.641
 24.3136  12067.3  110.315
 24.5116  12113.4  110.045
 24.7096  11788.9  108.365
 24.9076  11603.1  107.54
 25.1056  11333  106.757
 25.3036  11178.9  105.542
 25.5016  11216.3  105.751
 25.6996  11065.6  104.626
 25.8976  11104.2  105.231
 26.0956  10953.4  104.536
 26.2936  11013.5  104.483
 26.4916  11243.3  105.43
 26.6896  10940.3  104.292
 26.8876  10808.3  103.512
 27.0856  10609.1  102.626
 27.2836  10457.1  101.843
 27.4816  10362.4  101.251
 27.6796  10327.5  101.449
 27.8776  10511.1  102.195
 28.0756  10134  100.645
 28.2736  10179.1  100.442
 28.4716  10014.4  99.6715
 28.6696  10096.9  99.9344
 28.8676  9855.82  99.0896
 29.0656  9842.29  99.0003
 29.2636  9890.92  99.0288
 29.4616  9406.08  96.7643
 29.6596  9508.84  96.8621
 29.8576  9439.11  97.1869
 30.0556  9315.82  96.4287
 30.2536  9536.59  97.3592
 30.4516  9604.24  97.3155
 30.6496  9554.68  96.8087
 30.8476  9690.68  97.9264
 31.0456  9641.13  97.6491
 31.2436  9501.15  96.1992
 31.4416  9201.37  94.8575
 31.6396  9510.81  96.4851
 31.8376  9416.54  95.5232
 32.0356  9203.72  95
 32.2336  9386.49  95.3447
 32.4316  9019.35  93.8289
 32.6296  8967.14  93.431
 32.8276  9012.54  93.4581
 33.0256  8937.56  93.1257
 33.2236  9021.49  93.7114
 33.4216  8868.26  92.6046
 33.6196  8830.24  92.7048
 33.8176  8873.75  93.0884
 34.0156  8791.4  92.2884
 34.2136  8868.53  92.6994
 34.4116  8629.84  91.7412
 34.6096  8672.98  91.7318
 34.8076  8610.64  91.82
 35.0056  8628.45  91.5751
 35.2036  8790.73  92.6553
 35.4016  8512.6  91.1026
 35.5996  8538.13  91.2694
 35.7976  8455.17  91.0974
 35.9956  8625.91  91.6689
 36.1936  8558.26  91.1358
 36.3916  8441.82  90.6793
 36.5896  8364.29  91.2985
 36.7876  8081.62  89.1435
 36.9856  8060.67  89.0591
 37.1836  8053.51  88.1337
 37.3816  8102.8  88.7667
 37.5796  8146.74  90.7282
 37.7776  8219.71  89.4759
 37.9756  8243.63  89.4964
 38.1736  8109.08  88.9553
 38.3716  8123.19  89.2975
 38.5696  8072.94  89.4102
 38.7676  7868.45  87.7827
 38.9656  8036.68  88.3381
 39.1636  8118.91  89.0649
 39.3616  7980.51  88.2478
 39.5596  7759.52  87.8348
 39.7576  7844.08  87.7094
 39.9556  7904.29  87.6859
 40.1536  8004.31  88.4346
 40.3516  8036.6  88.6288
 40.5496  8016.11  88.7696
 40.7476  8027.56  88.8351
 40.9456  8126.95  89.1365
 41.1436  8078.99  88.5828
 41.3416  7940.6  88.1333
 41.5396  7950.71  87.9613
 41.7376  7864.88  87.8116
 41.9356  7904.72  87.8968
 42.1336  8103.25  89.1263
 42.3316  7793.38  87.6238
 42.5296  7885.57  87.6498
 42.7276  7893.67  87.94
 42.9256  7982.2  88.3022
 43.1236  7822.43  87.5079
 43.3216  7861.44  87.4813
 43.5196  7789.51  87.1384
 43.7176  7742.41  87.2781
 43.9156  7545.62  86.085
 44.1136  7456.05  85.1319
 44.3116  7615.61  86.0497
 44.5096  7584.61  86.1862
 44.7076  7608.25  86.2492
 44.9056  7858.55  87.5063
 45.1036  7640.95  85.9083
 45.3016  7711.85  86.8087
 45.4996  7574.89  85.9714
 45.6976  7524.21  85.8696
 45.8956  7642.26  86.3523
 46.0936  7730.77  86.805
 46.2916  7722.69  86.7907
 46.4896  7645.3  86.3789
 46.6876  7531.67  86.4559
 46.8856  7464.2  85.3191
 47.0836  7545.45  86.0442
 47.2816  7385.84  85.0174
 47.4796  7513.68  85.8487
 47.6776  7425.13  86.3031
 47.8756  7458.07  85.6573
 48.0736  7418.02  85.883
 48.2716  7339.85  85.2849
 48.4696  7522  85.9031
 48.6676  7500.74  86.3665
 48.8656  7520.3  86.1951
 49.0636  7473.64  85.865
 49.2616  7363.17  85.1697
 49.4596  7323.19  84.7487
 49.6576  7303.68  84.7122
 49.8556  7339.22  84.9408
 50.0536  7266.8  84.9671
 50.2516  7303.01  85.319
 50.4496  7368.3  85.352
 50.6476  7394.38  85.1637
 50.8456  7330.58  84.8972
 51.0436  7128.24  84.1751
 51.2416  7097.75  83.6611
 51.4396  6986.13  83.4104
 51.6376  7026.19  83.4681
 51.8356  6938.79  82.5711
 52.0336  7068.56  83.8446
 52.2316  7074.31  84.2436
 52.4296  6947.81  83.1854
 52.6276  6979.49  83.4817
 52.8256  6994.95  83.1146
 53.0236  7072.46  84.2417
 53.2216  7030.28  84.0291
 53.4196  7058.86  84.1033
 53.6176  6885.23  83.5704
 53.8156  6972.36  83.757
 54.0136  6703.92  82.3102
 54.2116  6910.83  83.1933
 54.4096  6628.57  81.5483
 54.6076  6587  81.6415
 54.8056  6582.56  81.388
 55.0036  6641.07  82.1545
 55.2016  6673.77  81.8642
 55.3996  6460.89  80.5385
 55.5976  6478.53  80.8398
 55.7956  6517.21  80.8971
 55.9936  6593.28  81.4823
 56.1916  6450.63  80.6476
 56.3896  6272.2  79.4858
 56.5876  6312.56  80.3144
 56.7856  6282.2  79.6143
 56.9836  6359.04  79.8661
 57.1816  6476.99  80.9794
 57.3796  6270.19  79.497
 57.5776  6413.85  80.3097
 57.7756  6183.25  79.5
 57.9736  6225.35  79.4532
 58.1716  6183.88  79.4381
 58.3696  6042.58  78.2941
 58.5676  6080.02  78.0037
 58.7656  6037.96  78.4093
 58.9636  6004.47  78.2209
 59.1616  6043.36  78.6082
 59.3596  5965.04  77.3565
 59.5576  6043.64  77.9219
 59.7556  5931.98  77.6133
 59.9536  5922.64  77.452
 60.1516  5887.95  78.063
 60.1996  0.0000000E+00  0.0000000E+00