Folder: echemistpy/docs/examples/XRD/IS17_D/Data/IS17_D (part 10)

File: 17_Da_f00070.xye
# /beamlines/bl04/projects/cycle2025-II/20250340211-lsimonelli/DATA/IS17_D/17_Da_f00070.xye : mythproc.py merge -s 0.006 -l 0.5 -f /beamlines/bl04/inhouse/ff/FlatField/ff_20Nov2024rod8mm60s_17keV.raw -b True -c true -o xye /beamlines/bl04/projects/cycle2025-II/20250340211-lsimonelli/DATA/IS17_D/17_Da_00070.dat
# IsMon = [6780545, 6784289, 6784293]  IsPos = [-1.4999, -2.4884, -3.4988]
# Wave = 0.4962  CalPath /beamlines/bl04/projects/cycle2025-II/20250340211-lsimonelli/DATA/Align/Si_Pos1_25keV_f00001.cal
# Date = 2025-09-24_13:02:53 Dt = 4.8000  Bin = 0.0060  <imon> = 6783042 +/- 1766 (Min/Max) 6780545 / 6784293
# icurr 251.8092  mocoIn 1.7184E-05  mocoOut 0.8059  i15 7.10032e+06  imon 6.78304e+06  i7 5.6667  iEMpd_timer 4.8000  iEMpd_1 3.3313E-08  iEMpd_2 7.9009E-08  iEMpd_3 1.6009E-08  iEMpd_4 4.7158E-08  iEMhp_timer 4.8000  iEMhp_1 4.9199E-06  iEMhp_2 -2.5312E-08  iEMhp_3 -2.4885E-08  iEMhp_4 -2.0426E-08
#      9776
 1.7416  68886.8  262.587
 1.9396  44950.5  212.382
 2.1376  31797  178.628
 2.3356  28521.7  168.822
 2.5336  28019.7  167.919
 2.7316  25032.1  158.804
 2.9296  23647.3  154.509
 3.1276  23199.5  152.595
 3.3256  22946.2  151.43
 3.5236  24953.6  157.719
 3.7216  22632.9  151.425
 3.9196  22605.3  150.572
 4.1176  22102.5  148.662
 4.3156  23502.6  153.453
 4.5136  26388.4  161.584
 4.7116  27007.4  164.601
 4.9096  26298.3  161.868
 5.1076  25821.8  160.971
 5.3056  26285.3  162.133
 5.5036  26071.4  161.365
 5.7016  26398.2  162.344
 5.8996  27050.2  163.564
 6.0976  27770.3  167.154
 6.2956  28273.9  167.995
 6.4936  29025.8  169.418
 6.6916  29541.6  171.911
 6.8896  30498.8  174.529
 7.0876  31263.4  177.432
 7.2856  31246.3  176.445
 7.4836  31786.6  177.3
 7.6816  32438.3  179.64
 7.8796  33885.6  183.583
 8.0776  37481.8  194.085
 8.2756  38279.4  194.717
 8.4736  38399  194.835
 8.6716  37534.3  193.266
 8.8696  38088.2  195.185
 9.0676  37601.5  193.293
 9.2656  35635.5  188.864
 9.4636  35190.9  186.074
 9.6616  34287.3  184.451
 9.8596  33077.3  180.631
 10.0576  31249  176.225
 10.2556  30167.8  173.595
 10.4536  32446.3  179.616
 10.6516  33790.9  183.522
 10.8496  27810.1  165.892
 11.0476  27654  165.451
 11.2456  29514.9  171.49
 11.4436  27271.6  163.996
 11.6416  26122.8  160.867
 11.8396  24899.2  157.262
 12.0376  24893.3  156.872
 12.2356  25660.6  159.682
 12.4336  24908.9  156.867
 12.6316  23877.5  153.858
 12.8296  24449.2  155.322
 13.0276  24936.4  157.034
 13.2256  24579.5  156.282
 13.4236  24686.6  156.388
 13.6216  24478.6  155.751
 13.8196  25188.8  157.753
 14.0176  24284.1  155.171
 14.2156  23579.2  151.958
 14.4136  22444.1  149.625
 14.6116  22041.3  147.484
 14.8096  21439.9  145.442
 15.0076  20384.6  145.65
 15.2056  19785.4  139.313
 15.4036  18946.4  137.151
 15.6016  18740.2  135.483
 15.7996  18464.5  134.768
 15.9976  17466.4  134.009
 16.1956  16839.3  129.488
 16.3936  16600.8  127.745
 16.5916  16622.5  128.465
 16.7896  16572.5  128.326
 16.9876  16461.2  129.374
 17.1856  16067.8  126.175
 17.3836  15307.8  123.062
 17.5816  15264.3  123.377
 17.7796  15202.6  123.053
 17.9776  15270.5  124.129
 18.1756  15964.4  125.577
 18.3736  15917.4  125.923
 18.5716  14738.9  120.919
 18.7696  14802.8  120.749
 18.9676  14367.3  118.767
 19.1656  14357.4  119.288
 19.3636  14042.7  118.17
 19.5616  14123.3  118.68
 19.7596  14271  118.706
 19.9576  14818.7  121.016
 20.1556  13904.6  117.733
 20.3536  13635.1  115.961
 20.5516  13342.2  115.16
 20.7496  13157.2  114.306
 20.9476  13554.2  115.764
 21.1456  13701.1  116.724
 21.3436  13031.7  113.791
 21.5416  13149.1  114.305
 21.7396  12854.5  112.862
 21.9376  12962.2  113.096
 22.1356  13069.8  113.694
 22.3336  12797.8  112.79
 22.5316  12822.6  112.985
 22.7296  12908.4  112.717
 22.9276  12696.9  112.473
 23.1256  13039.1  113.445
 23.3236  12558.3  111.903
 23.5216  12528.5  111.428
 23.7196  12484.6  111.179
 23.9176  12391.7  110.523
 24.1156  12322.5  110.681
 24.3136  11848.8  109.325
 24.5116  11858  108.893
 24.7096  11822  108.545
 24.9076  11556.4  107.347
 25.1056  11257.4  106.412
 25.3036  11293.4  106.079
 25.5016  11202.2  105.69
 25.6996  11181.1  105.167
 25.8976  11327.8  106.303
 26.0956  11270.3  106.044
 26.2936  11013.8  104.467
 26.4916  11085.2  104.695
 26.6896  10723.3  103.272
 26.8876  10537.6  102.224
 27.0856  10677.1  102.944
 27.2836  10567.4  102.312
 27.4816  10641.3  102.603
 27.6796  10265  101.149
 27.8776  10478  102.048
 28.0756  10371.6  101.814
 28.2736  10383.4  101.454
 28.4716  10124.7  100.23
 28.6696  9998.99  99.4532
 28.8676  9850.23  99.0567
 29.0656  9835.99  98.9658
 29.2636  9720.22  98.1724
 29.4616  9769.4  98.5991
 29.6596  9753.52  98.0787
 29.8576  9576.91  97.8773
 30.0556  9764.02  98.707
 30.2536  9788.36  98.6178
 30.4516  9715.24  97.9122
 30.6496  9647.23  97.2946
 30.8476  9528.8  97.1383
 31.0456  9532.16  97.1186
 31.2436  9431.74  95.8705
 31.4416  9259.75  95.1692
 31.6396  9662.81  97.2633
 31.8376  9361.35  95.2841
 32.0356  9333.93  95.706
 32.2336  9033.58  93.5505
 32.4316  9130.94  94.455
 32.6296  9023.27  93.732
 32.8276  9111.18  93.9639
 33.0256  9019.17  93.5681
 33.2236  8906.57  93.1268
 33.4216  9084.43  93.7274
 33.6196  8894.61  93.0447
 33.8176  8993.25  93.7287
 34.0156  8916.66  92.9348
 34.2136  8782.92  92.2829
 34.4116  8697.19  91.9693
 34.6096  8791.54  92.3571
 34.8076  8650.68  92.0122
 35.0056  8813.63  92.5714
 35.2036  8619.63  91.756
 35.4016  8658.27  91.8827
 35.5996  8512.07  91.137
 35.7976  8461.17  91.138
 35.9956  8608.84  91.5733
 36.1936  8415.74  90.412
 36.3916  8369.3  90.3332
 36.5896  8410.1  91.5372
 36.7876  8409.25  90.9272
 36.9856  8348.55  90.6224
 37.1836  8367.75  89.8233
 37.3816  8428.99  90.5216
 37.5796  8249.36  91.281
 37.7776  8116.59  88.9314
 37.9756  8048.25  88.4393
 38.1736  8240.72  89.6869
 38.3716  8111.33  89.2578
 38.5696  7991.82  88.9679
 38.7676  7862.65  87.7532
 38.9656  7932.91  87.7862
 39.1636  7878.3  87.7407
 39.3616  8003.41  88.3702
 39.5596  7869.99  88.4724
 39.7576  7913.58  88.0925
 39.9556  7990.73  88.1604
 40.1536  8153.16  89.2596
 40.3516  8123.91  89.1042
 40.5496  8102.9  89.255
 40.7476  8062.13  89.0287
 40.9456  8063.24  88.7874
 41.1436  8063.13  88.5114
 41.3416  7976.47  88.3616
 41.5396  7899.26  87.7469
 41.7376  7948.9  88.2899
 41.9356  7972.98  88.2772
 42.1336  7902.84  88.0408
 42.3316  7904.08  88.2403
 42.5296  7960.46  88.0714
 42.7276  7971.62  88.3746
 42.9256  7910.8  87.8994
 43.1236  7785.51  87.3164
 43.3216  7862.94  87.4984
 43.5196  7764.49  87.0138
 43.7176  7795.63  87.5811
 43.9156  7607.89  86.4258
 44.1136  7715.41  86.5802
 44.3116  7649.42  86.2283
 44.5096  7613.98  86.3366
 44.7076  7616.24  86.279
 44.9056  7631.55  86.2428
 45.1036  7534.52  85.3187
 45.3016  7464.07  85.4185
 45.4996  7544.31  85.8158
 45.6976  7301.55  84.5957
 45.8956  7440.39  85.2136
 46.0936  7494.37  85.5311
 46.2916  7327.15  84.5464
 46.4896  7403.79  85.02
 46.6876  7280.92  85.0162
 46.8856  7339.76  84.6205
 47.0836  7295.76  84.6173
 47.2816  7118.89  83.4539
 47.4796  7195.48  84.0192
 47.6776  7102.41  84.4114
 47.8756  7113.13  83.6519
 48.0736  7142.4  84.2822
 48.2716  7023.23  83.3852
 48.4696  7095.07  83.403
 48.6676  7128.55  84.1961
 48.8656  7186.03  84.2596
 49.0636  7168.58  84.1116
 49.2616  6870.98  82.3754
 49.4596  6988.81  82.6458
 49.6576  6929.51  82.5196
 49.8556  6971.61  82.7867
 50.0536  6903.74  82.8228
 50.2516  6925.99  83.0928
 50.4496  6809.06  82.0443
 50.6476  6837.89  81.9069
 50.8456  6792.98  81.7139
 51.0436  6684.38  81.4988
 51.2416  6721.42  81.3962
 51.4396  6538.29  80.6727
 51.6376  6555.08  80.6065
 51.8356  6632.37  80.71
 52.0336  6496.13  80.385
 52.2316  6482.95  80.6539
 52.4296  6670.02  81.4855
 52.6276  6596.97  81.1633
 52.8256  6505.03  80.1496
 53.0236  6475.65  80.6203
 53.2216  6386.52  80.0993
 53.4196  6357.6  79.8338
 53.6176  6340.18  80.2001
 53.8156  6323.38  79.764
 54.0136  6411.23  80.4991
 54.2116  6358.4  79.8319
 54.4096  6388.24  80.0604
 54.6076  6320.36  79.9863
 54.8056  6288.31  79.573
 55.0036  6285.01  79.9444
 55.2016  6220.29  79.0799
 55.3996  6255.68  79.2672
 55.5976  6214.66  79.1976
 55.7956  6249.77  79.2365
 55.9936  6289.76  79.6325
 56.1916  6256.08  79.4243
 56.3896  6203.95  79.0916
 56.5876  6162.53  79.3773
 56.7856  6095.05  78.432
 56.9836  6109.49  78.3099
 57.1816  6185.89  79.1719
 57.3796  6206.64  79.1037
 57.5776  6311.36  79.6992
 57.7756  6152.97  79.326
 57.9736  6179.7  79.1692
 58.1716  6201.96  79.5543
 58.3696  6165.65  79.0704
 58.5676  6171.87  78.585
 58.7656  6249.38  79.7503
 58.9636  6148.25  79.1413
 59.1616  6226.18  79.7597
 59.3596  6306.6  79.5307
 59.5576  6289.93  79.4838
 59.7556  6191.41  79.2823
 59.9536  6312.08  79.9477
 60.1516  6297.06  80.7192
 60.1996  0.0000000E+00  0.0000000E+00

File: 17_Da_f00073.xye
# /beamlines/bl04/projects/cycle2025-II/20250340211-lsimonelli/DATA/IS17_D/17_Da_f00073.xye : mythproc.py merge -s 0.006 -l 0.5 -f /beamlines/bl04/inhouse/ff/FlatField/ff_20Nov2024rod8mm60s_17keV.raw -b True -c true -o xye /beamlines/bl04/projects/cycle2025-II/20250340211-lsimonelli/DATA/IS17_D/17_Da_00073.dat
# IsMon = [6756534, 6756321, 6755743]  IsPos = [-1.4999, -2.4884, -3.4988]
# Wave = 0.4962  CalPath /beamlines/bl04/projects/cycle2025-II/20250340211-lsimonelli/DATA/Align/Si_Pos1_25keV_f00001.cal
# Date = 2025-09-24_13:52:41 Dt = 4.8000  Bin = 0.0060  <imon> = 6756199 +/- 334 (Min/Max) 6755743 / 6756534
# icurr 249.6810  mocoIn 1.7030E-05  mocoOut 0.7986  i15 7.07378e+06  imon 6.7562e+06  i7 6.0000  iEMpd_timer 4.8000  iEMpd_1 3.3330E-08  iEMpd_2 7.8702E-08  iEMpd_3 1.5377E-08  iEMpd_4 4.7359E-08  iEMhp_timer 4.8000  iEMhp_1 4.8771E-06  iEMhp_2 -2.5258E-08  iEMhp_3 -2.4511E-08  iEMhp_4 -2.1793E-08
#      9776
 1.7416  68370.4  261.546
 1.9396  44761.1  211.897
 2.1376  31294  177.172
 2.3356  28170.4  167.744
 2.5336  27693.9  166.905
 2.7316  24480.9  157.037
 2.9296  23385.9  153.645
 3.1276  22797  151.256
 3.3256  22688.4  150.573
 3.5236  24609.6  156.625
 3.7216  22376.9  150.568
 3.9196  22326.2  149.633
 4.1176  21649.8  147.128
 4.3156  23186.7  152.424
 4.5136  26157.1  160.879
 4.7116  26655.2  163.523
 4.9096  25931.7  160.739
 5.1076  25494  159.937
 5.3056  25864.3  160.834
 5.5036  25623.6  159.973
 5.7016  26132  161.527
 5.8996  26662.2  162.381
 6.0976  27395.2  166.013
 6.2956  27749.3  166.436
 6.4936  28621.8  168.238
 6.6916  28741.4  169.565
 6.8896  29961.5  172.989
 7.0876  31010.2  176.712
 7.2856  30671.3  174.812
 7.4836  31476.3  176.432
 7.6816  32066.3  178.609
 7.8796  33670.4  183.016
 8.0776  38072.9  195.631
 8.2756  37878.4  193.718
 8.4736  37671.9  193.001
 8.6716  37032  191.99
 8.8696  37815.8  194.489
 9.0676  36958.4  191.624
 9.2656  35339.8  188.066
 9.4636  34514.5  184.281
 9.6616  33852.6  183.279
 9.8596  32601.9  179.319
 10.0576  30993.6  175.509
 10.2556  29929.6  172.894
 10.4536  32834.5  180.677
 10.6516  34940.4  186.604
 10.8496  27599.2  165.253
 11.0476  27436.1  164.795
 11.2456  29928.6  172.687
 11.4436  26920.1  162.94
 11.6416  26121.3  160.862
 11.8396  24663  156.506
 12.0376  24356.1  155.175
 12.2356  25992.2  160.714
 12.4336  24743  156.35
 12.6316  23778.4  153.531
 12.8296  24219.7  154.591
 13.0276  24656.4  156.163
 13.2256  24227.9  155.154
 13.4236  24275.5  155.082
 13.6216  24154.8  154.707
 13.8196  24875.8  156.771
 14.0176  24056.2  154.455
 14.2156  23270.2  150.959
 14.4136  21965.5  148.022
 14.6116  21853.4  146.855
 14.8096  21083.3  144.231
 15.0076  20440.5  145.828
 15.2056  19962.5  139.95
 15.4036  18781.8  136.571
 15.6016  18581  134.925
 15.7996  18028.6  133.182
 15.9976  17209.9  133.033
 16.1956  16886.6  129.664
 16.3936  16358.7  126.804
 16.5916  16512.1  128.032
 16.7896  16350.8  127.464
 16.9876  16204.9  128.362
 17.1856  16025.8  126.005
 17.3836  15072.5  122.11
 17.5816  14955.9  122.114
 17.7796  15122.2  122.721
 17.9776  15178.1  123.752
 18.1756  16050.7  125.924
 18.3736  15978.3  126.165
 18.5716  14556.3  120.169
 18.7696  14576.6  119.823
 18.9676  14176.1  117.97
 19.1656  14180.6  118.544
 19.3636  13923  117.666
 19.5616  14006.8  118.196
 19.7596  14079.4  117.901
 19.9576  14590.2  120.074
 20.1556  13582.5  116.372
 20.3536  13512.5  115.453
 20.5516  13366.5  115.272
 20.7496  13027.1  113.742
 20.9476  13416.2  115.177
 21.1456  13520.2  115.953
 21.3436  12970.7  113.525
 21.5416  12849.9  112.997
 21.7396  12704.2  112.2
 21.9376  12761.4  112.218
 22.1356  12995.8  113.371
 22.3336  12911.8  113.301
 22.5316  12628.6  112.134
 22.7296  12563.6  111.208
 22.9276  12490.8  111.564
 23.1256  12999.2  113.28
 23.3236  12578.8  111.987
 23.5216  12411.3  110.897
 23.7196  12396.5  110.784
 23.9176  12267.1  109.948
 24.1156  12199.7  110.126
 24.3136  11985.2  109.945
 24.5116  11907  109.11
 24.7096  11742.5  108.172
 24.9076  11531.6  107.219
 25.1056  11186.4  106.069
 25.3036  11084.5  105.096
 25.5016  11203.4  105.697
 25.6996  11097.4  104.773
 25.8976  11122.8  105.327
 26.0956  11167.6  105.563
 26.2936  11010.4  104.463
 26.4916  11014.9  104.364
 26.6896  10712.4  103.214
 26.8876  10566.2  102.362
 27.0856  10599.1  102.58
 27.2836  10423.6  101.615
 27.4816  10465.8  101.757
 27.6796  10341.2  101.524
 27.8776  10510.4  102.204
 28.0756  10282.9  101.384
 28.2736  10189.5  100.502
 28.4716  9903.72  99.1321
 28.6696  10045.1  99.6827
 28.8676  9940.69  99.5096
 29.0656  9730  98.429
 29.2636  9682.37  97.9827
 29.4616  9611.78  97.8109
 29.6596  9761.72  98.1334
 29.8576  9522.98  97.6113
 30.0556  9763.67  98.7131
 30.2536  9790.73  98.6411
 30.4516  9559.77  97.1229
 30.6496  9508.43  96.5865
 30.8476  9461.37  96.7911
 31.0456  9355.26  96.2055
 31.2436  9391.86  95.6572
 31.4416  9076.16  94.2145
 31.6396  9740.78  97.6502
 31.8376  9305.62  94.9846
 32.0356  9242.94  95.2366
 32.2336  9043.95  93.5951
 32.4316  9178.34  94.7019
 32.6296  8912.17  93.1555
 32.8276  9031.05  93.5529
 33.0256  8974.78  93.3322
 33.2236  8813.44  92.6327
 33.4216  8900.82  92.7856
 33.6196  8874.55  92.941
 33.8176  8854.96  93.0024
 34.0156  8660.04  91.5909
 34.2136  8690.46  91.7863
 34.4116  8665.92  91.815
 34.6096  8751.21  92.1324
 34.8076  8544.66  91.4566
 35.0056  8555.13  91.2033
 35.2036  8552.75  91.4026
 35.4016  8539.92  91.2492
 35.5996  8458.75  90.8549
 35.7976  8391.69  90.7676
 35.9956  8518.71  91.0972
 36.1936  8395.38  90.3017
 36.3916  8364.28  90.3097
 36.5896  8485  91.9394
 36.7876  8425.35  91.0228
 36.9856  8262.06  90.1651
 37.1836  8172.91  88.7804
 37.3816  8236.36  89.4903
 37.5796  8080.07  90.3531
 37.7776  8059.25  88.6101
 37.9756  8061.33  88.5064
 38.1736  8357.98  90.3212
 38.3716  8227.97  89.8921
 38.5696  8034.62  89.2095
 38.7676  7824.44  87.5401
 38.9656  7847.44  87.3062
 39.1636  7800.72  87.3118
 39.3616  7906.62  87.8319
 39.5596  7879.88  88.5263
 39.7576  7858.47  87.7837
 39.9556  7828.59  87.2582
 40.1536  8052.57  88.7027
 40.3516  8090.2  88.9225
 40.5496  8023.14  88.8176
 40.7476  8035.96  88.8941
 40.9456  8025.26  88.5802
 41.1436  7955.24  87.9135
 41.3416  7904.49  87.9698
 41.5396  7847.54  87.4574
 41.7376  7893.07  87.9799
 41.9356  7790.09  87.2618
 42.1336  7880.27  87.9107
 42.3316  7916.6  88.3126
 42.5296  7892.7  87.6955
 42.7276  7926.08  88.1228
 42.9256  7823.89  87.4191
 43.1236  7823.63  87.5299
 43.3216  7816.34  87.2368
 43.5196  7721.87  86.7736
 43.7176  7675.41  86.9056
 43.9156  7632.53  86.5761
 44.1136  7495.87  85.3499
 44.3116  7598.05  85.9474
 44.5096  7559.92  86.0387
 44.7076  7579.85  86.0805
 44.9056  7516.52  85.5868
 45.1036  7310.46  84.034
 45.3016  7338.44  84.6892
 45.4996  7287.54  84.3393
 45.6976  7284.95  84.5007
 45.8956  7339.54  84.626
 46.0936  7340.81  84.641
 46.2916  7328.83  84.5518
 46.4896  7338.25  84.6353
 46.6876  7242.65  84.7922
 46.8856  7227.18  83.9586
 47.0836  7161.55  83.827
 47.2816  7104.19  83.3771
 47.4796  7167.02  83.8459
 47.6776  7019.16  83.9083
 47.8756  7078.97  83.4505
 48.0736  7131.51  84.2175
 48.2716  6927.3  82.8241
 48.4696  7087.2  83.3615
 48.6676  6971.57  83.2592
 48.8656  7039.79  83.3913
 49.0636  7071.56  83.5233
 49.2616  6842.23  82.2065
 49.4596  6855.98  81.8517
 49.6576  6823.6  81.8823
 49.8556  6788.6  81.6922
 50.0536  6803.15  82.2211
 50.2516  6798.37  82.3261
 50.4496  6842.48  82.2436
 50.6476  6770.63  81.5023
 50.8456  6707.08  81.2099
 51.0436  6656.01  81.3282
 51.2416  6681.83  81.1671
 51.4396  6493.47  80.3995
 51.6376  6627.34  81.0537
 51.8356  6514.42  79.9952
 52.0336  6433.1  79.9971
 52.2316  6427.54  80.3091
 52.4296  6463.94  80.2243
 52.6276  6437.4  80.1819
 52.8256  6487.47  80.0445
 53.0236  6366.77  79.9344
 53.2216  6350.16  79.8656
 53.4196  6323.67  79.6174
 53.6176  6200.23  79.3108
 53.8156  6217.1  79.0952
 54.0136  6313.97  79.8875
 54.2116  6247.59  79.1275
 54.4096  6265.39  79.291
 54.6076  6235.93  79.4482
 54.8056  6196.71  78.987
 55.0036  6218.88  79.5237
 55.2016  6175.57  78.7888
 55.3996  6156.44  78.6397
 55.5976  6157.91  78.8319
 55.7956  6129.99  78.4741
 55.9936  6165.4  78.8361
 56.1916  6224.68  79.2327
 56.3896  6268.15  79.5024
 56.5876  6127.02  79.1488
 56.7856  6158.92  78.839
 56.9836  6069.22  78.0478
 57.1816  6165.85  79.0424
 57.3796  6122.15  78.5606
 57.5776  6176.88  78.8386
 57.7756  6018.41  78.4519
 57.9736  6046.93  78.3199
 58.1716  6075.47  78.7428
 58.3696  6032.29  78.216
 58.5676  6084.85  78.0268
 58.7656  6110.51  78.8741
 58.9636  6112.15  78.9166
 59.1616  5999.9  78.3082
 59.3596  6244.94  79.1499
 59.5576  6113.32  78.3698
 59.7556  6232.37  79.5541
 59.9536  6125.07  78.7644
 60.1516  6117.94  79.573
 60.1996  0.0000000E+00  0.0000000E+00