Folder: echemistpy/docs/examples/XRD/IS17_D/Data/IS17_D (part 33)

File: 17_Db_f00137.xye
# /beamlines/bl04/projects/cycle2025-II/20250340211-lsimonelli/DATA/IS17_D/17_Db_f00137.xye : mythproc.py merge -s 0.006 -l 0.5 -f /beamlines/bl04/inhouse/ff/FlatField/ff_20Nov2024rod8mm60s_17keV.raw -b True -c true -o xye /beamlines/bl04/projects/cycle2025-II/20250340211-lsimonelli/DATA/IS17_D/17_Db_00137.dat
# IsMon = [6742776, 6740436, 6741333]  IsPos = [-1.5000, -2.4884, -3.4988]
# Wave = 0.4962  CalPath /beamlines/bl04/projects/cycle2025-II/20250340211-lsimonelli/DATA/Align/Si_Pos1_25keV_f00001.cal
# Date = 2025-09-25_07:54:41 Dt = 4.8000  Bin = 0.0060  <imon> = 6741515 +/- 964 (Min/Max) 6740436 / 6742776
# icurr 249.0586  mocoIn 1.6997E-05  mocoOut 0.7977  i15 7.06843e+06  imon 6.74152e+06  i7 6.0000  iEMpd_timer 4.8000  iEMpd_1 3.5361E-08  iEMpd_2 7.9744E-08  iEMpd_3 1.7662E-08  iEMpd_4 4.8887E-08  iEMhp_timer 4.8000  iEMhp_1 4.8679E-06  iEMhp_2 -2.6095E-08  iEMhp_3 -2.4472E-08  iEMhp_4 -2.0871E-08
#      9776
 1.7416  68531.8  261.836
 1.9396  47853.1  219.077
 2.1376  34890.7  187.064
 2.3356  31393.5  177.069
 2.5336  29977  173.637
 2.7316  26502.8  163.394
 2.9296  25417.2  160.168
 3.1276  24818.5  157.815
 3.3256  24161.4  155.385
 3.5236  25564.2  159.633
 3.7216  23542.7  154.435
 3.9196  23216.2  152.569
 4.1176  23024.8  151.724
 4.3156  23954.7  154.928
 4.5136  26512.1  161.966
 4.7116  27397  165.776
 4.9096  26784  163.351
 5.1076  26314  162.477
 5.3056  26398.8  162.468
 5.5036  26131.1  161.561
 5.7016  26852.7  163.737
 5.8996  27241.8  164.152
 6.0976  28147.3  168.264
 6.2956  28278.8  168.005
 6.4936  28889.7  169.013
 6.6916  29295.7  171.175
 6.8896  30385.7  174.182
 7.0876  31327.1  177.514
 7.2856  30908.8  175.474
 7.4836  31539  176.595
 7.6816  32268.2  179.138
 7.8796  33082.7  181.413
 8.0776  35967.7  190.152
 8.2756  36838  191.052
 8.4736  37498.3  192.565
 8.6716  36460.7  190.508
 8.8696  37754.1  194.343
 9.0676  36990.5  191.685
 9.2656  35446  188.339
 9.4636  34651.3  184.678
 9.6616  33742.4  182.973
 9.8596  33266.7  181.119
 10.0576  31018.7  175.56
 10.2556  30354.5  174.122
 10.4536  32065.3  178.545
 10.6516  33674.5  183.17
 10.8496  27737.8  165.676
 11.0476  27202.1  164.089
 11.2456  28748.2  169.252
 11.4436  27264.2  163.979
 11.6416  25946.1  160.294
 11.8396  24821.8  156.99
 12.0376  24241.2  154.792
 12.2356  24762.4  156.865
 12.4336  24334.8  155.045
 12.6316  23831.7  153.698
 12.8296  23858.1  153.403
 13.0276  24163.1  154.59
 13.2256  24089.3  154.714
 13.4236  24292.4  155.136
 13.6216  24573.3  156.018
 13.8196  27063.5  163.218
 14.0176  23686.4  153.265
 14.2156  23406.3  151.387
 14.4136  21988.3  148.099
 14.6116  21811.6  146.706
 14.8096  20946.3  143.747
 15.0076  20136.6  144.818
 15.2056  19282  137.546
 15.4036  18363.1  135.053
 15.6016  17803.7  132.079
 15.7996  17464.5  131.078
 15.9976  17170  132.842
 16.1956  16734.5  129.058
 16.3936  16484.5  127.272
 16.5916  16491.9  127.947
 16.7896  16376  127.552
 16.9876  16127.5  128.04
 17.1856  15984.6  125.846
 17.3836  15340.8  123.191
 17.5816  14946.7  122.076
 17.7796  15130.1  122.74
 17.9776  14928.5  122.711
 18.1756  15683.4  124.488
 18.3736  15309.9  123.486
 18.5716  14523.8  120.024
 18.7696  14451.8  119.295
 18.9676  14188.2  117.989
 19.1656  13914.7  117.446
 19.3636  13905.3  117.603
 19.5616  13835.9  117.474
 19.7596  14148.5  118.188
 19.9576  14586.3  120.055
 20.1556  13505.3  116.032
 20.3536  13593.7  115.804
 20.5516  13112.2  114.157
 20.7496  13167.2  114.248
 20.9476  13263.1  114.514
 21.1456  13168.8  114.432
 21.3436  12780.1  112.686
 21.5416  12739.2  112.512
 21.7396  12600.9  111.748
 21.9376  12540  111.251
 22.1356  12882.4  113.033
 22.3336  12412.1  111.092
 22.5316  12265.5  110.523
 22.7296  12373.5  110.378
 22.9276  12189.1  110.215
 23.1256  12474.9  110.981
 23.3236  12606.8  112.124
 23.5216  12591.1  111.69
 23.7196  12516.2  111.525
 23.9176  12382.6  110.464
 24.1156  12195.9  110.087
 24.3136  11905.1  109.569
 24.5116  11890.8  109.016
 24.7096  11717  108.048
 24.9076  11565.7  107.371
 25.1056  11277.7  106.487
 25.3036  10929.1  104.355
 25.5016  11073.5  105.068
 25.6996  11020.2  104.411
 25.8976  11235.9  105.859
 26.0956  10897.8  104.265
 26.2936  10944.6  104.154
 26.4916  11062.9  104.569
 26.6896  10798.2  103.615
 26.8876  10666.8  102.835
 27.0856  10456.4  101.876
 27.2836  10311  101.065
 27.4816  10435.4  101.599
 27.6796  10195.3  100.789
 27.8776  10559.6  102.428
 28.0756  10053.2  100.244
 28.2736  10052.3  99.821
 28.4716  9852.8  98.8767
 28.6696  9915.18  99.034
 28.8676  9802.74  98.819
 29.0656  9683.5  98.1915
 29.2636  9699.64  98.066
 29.4616  9344.02  96.4411
 29.6596  9349.98  96.0441
 29.8576  9239.41  96.1491
 30.0556  9390.69  96.8096
 30.2536  9495.32  97.1449
 30.4516  9480.14  96.7055
 30.6496  9622.66  97.1523
 30.8476  9511.34  97.0294
 31.0456  9445.25  96.6515
 31.2436  9415.96  95.7738
 31.4416  9294.62  95.3379
 31.6396  9691.35  97.4011
 31.8376  9490.55  95.9061
 32.0356  9276.17  95.3856
 32.2336  9252.2  94.6625
 32.4316  9014.3  93.843
 32.6296  8964.52  93.4194
 32.8276  8947.46  93.1246
 33.0256  8820.67  92.5229
 33.2236  8912.69  93.1458
 33.4216  8813.41  92.3171
 33.6196  8841.97  92.7595
 33.8176  8928.27  93.3782
 34.0156  8654.34  91.5621
 34.2136  8803.59  92.3709
 34.4116  8564.61  91.2818
 34.6096  8782.96  92.3103
 34.8076  8557.47  91.5316
 35.0056  8497.78  90.8854
 35.2036  8681.45  92.0856
 35.4016  8377.28  90.3795
 35.5996  8354.84  90.2909
 35.7976  8365.16  90.6148
 35.9956  8624.81  91.6507
 36.1936  8519.86  90.9507
 36.3916  8317.51  90.0581
 36.5896  8328.71  91.1065
 36.7876  8163.24  89.5962
 36.9856  8007.49  88.7628
 37.1836  8077.59  88.2643
 37.3816  8030.43  88.3674
 37.5796  8145.52  90.7167
 37.7776  8164.43  89.1804
 37.9756  8132.8  88.8866
 38.1736  8301.18  90.005
 38.3716  8019.44  88.7232
 38.5696  7919.22  88.5578
 38.7676  7858.93  87.7333
 38.9656  7955.1  87.8839
 39.1636  8045.47  88.6589
 39.3616  8037.07  88.5582
 39.5596  7820.8  88.1818
 39.7576  7825.28  87.6039
 39.9556  7858.67  87.4324
 40.1536  8051.36  88.6941
 40.3516  7921.25  87.98
 40.5496  7984.94  88.598
 40.7476  7945.6  88.3863
 40.9456  8047.56  88.6982
 41.1436  7961.93  87.9386
 41.3416  7794.06  87.35
 41.5396  7891.64  87.7006
 41.7376  7907.16  88.0352
 41.9356  7826.72  87.4581
 42.1336  7999.06  88.5509
 42.3316  7808.75  87.7051
 42.5296  7888.04  87.6629
 42.7276  7796.87  87.3979
 42.9256  7755.54  87.0404
 43.1236  7774.3  87.242
 43.3216  7814.64  87.2119
 43.5196  7710.79  86.7068
 43.7176  7687.36  86.9673
 43.9156  7574.32  86.2467
 44.1136  7566.62  85.7574
 44.3116  7635.02  86.1505
 44.5096  7540.02  85.9283
 44.7076  7500.5  85.632
 44.9056  7793.38  87.1454
 45.1036  7562.39  85.4654
 45.3016  7538.03  85.8326
 45.4996  7417.04  85.0802
 45.6976  7499.82  85.7346
 45.8956  7476.64  85.4159
 46.0936  7631.52  86.05
 46.2916  7503.42  85.5301
 46.4896  7516.5  85.6524
 46.6876  7516.24  86.3724
 46.8856  7480.85  85.4284
 47.0836  7473.35  85.6317
 47.2816  7325.35  84.6633
 47.4796  7446.35  85.4644
 47.6776  7346.26  85.8506
 47.8756  7329.93  84.9113
 48.0736  7354.9  85.5136
 48.2716  7334.06  85.2179
 48.4696  7559.71  86.0975
 48.6676  7503.77  86.3798
 48.8656  7448.39  85.7896
 49.0636  7517.58  86.116
 49.2616  7236.45  84.5409
 49.4596  7395.13  85.0037
 49.6576  7295.6  84.6693
 49.8556  7250.14  84.4229
 50.0536  7311.99  85.2419
 50.2516  7298.76  85.2957
 50.4496  7261.55  84.7309
 50.6476  7220.3  84.1653
 50.8456  7236.99  84.3446
 51.0436  7218  84.6952
 51.2416  7010.32  83.1394
 51.4396  7012.78  83.5651
 51.6376  7041.46  83.555
 51.8356  7025.83  83.0703
 52.0336  6929.28  83.0166
 52.2316  6963.58  83.5835
 52.4296  6947.49  83.1856
 52.6276  6928.81  83.1814
 52.8256  6967.05  82.9609
 53.0236  7078.65  84.2776
 53.2216  6997.53  83.8174
 53.4196  7070.18  84.1581
 53.6176  6932.88  83.8615
 53.8156  6887.63  83.2544
 54.0136  6618.46  81.7745
 54.2116  6828.03  82.6901
 54.4096  6603.82  81.3917
 54.6076  6600.53  81.7041
 54.8056  6484.94  80.7618
 55.0036  6595.83  81.7442
 55.2016  6564.21  81.1088
 55.3996  6407.84  80.217
 55.5976  6541.64  81.2344
 55.7956  6523.44  80.9315
 55.9936  6504.29  80.9419
 56.1916  6367.75  80.1252
 56.3896  6225.9  79.2141
 56.5876  6386.48  80.7764
 56.7856  6320.58  79.8589
 56.9836  6411.29  80.1948
 57.1816  6449.19  80.7983
 57.3796  6255.46  79.3869
 57.5776  6281.41  79.4533
 57.7756  6117.18  79.0601
 57.9736  6158.44  79.0148
 58.1716  6128.7  79.0846
 58.3696  5966.86  77.7959
 58.5676  6027.29  77.6607
 58.7656  6023.79  78.315
 58.9636  5983.77  78.0866
 59.1616  6009.68  78.3848
 59.3596  5942.28  77.2053
 59.5576  6002.58  77.6552
 59.7556  5895.3  77.3713
 59.9536  6009.29  78.0149
 60.1516  5879.01  78.0021
 60.1996  0.0000000E+00  0.0000000E+00

File: 17_Db_f00142.xye
# /beamlines/bl04/projects/cycle2025-II/20250340211-lsimonelli/DATA/IS17_D/17_Db_f00142.xye : mythproc.py merge -s 0.006 -l 0.5 -f /beamlines/bl04/inhouse/ff/FlatField/ff_20Nov2024rod8mm60s_17keV.raw -b True -c true -o xye /beamlines/bl04/projects/cycle2025-II/20250340211-lsimonelli/DATA/IS17_D/17_Db_00142.dat
# IsMon = [6786411, 6788866, 6785959]  IsPos = [-1.4999, -2.4883, -3.4989]
# Wave = 0.4962  CalPath /beamlines/bl04/projects/cycle2025-II/20250340211-lsimonelli/DATA/Align/Si_Pos1_25keV_f00001.cal
# Date = 2025-09-25_09:17:29 Dt = 4.8000  Bin = 0.0060  <imon> = 6787079 +/- 1277 (Min/Max) 6785959 / 6788866
# icurr 253.2033  mocoIn 1.7275E-05  mocoOut 0.8102  i15 7.10964e+06  imon 6.78708e+06  i7 5.6667  iEMpd_timer 4.8000  iEMpd_1 3.6413E-08  iEMpd_2 7.9057E-08  iEMpd_3 1.8221E-08  iEMpd_4 4.7093E-08  iEMhp_timer 4.8000  iEMhp_1 4.9461E-06  iEMhp_2 -2.6755E-08  iEMhp_3 -2.4222E-08  iEMhp_4 -2.1499E-08
#      9776
 1.7416  70700.4  265.985
 1.9396  49108.5  221.963
 2.1376  36186.5  190.533
 2.3356  32147.4  179.207
 2.5336  30031.3  173.819
 2.7316  27293.6  165.807
 2.9296  26148.6  162.451
 3.1276  25748.3  160.74
 3.3256  25198.6  158.692
 3.5236  26348.7  162.051
 3.7216  24404.3  157.227
 3.9196  23873.8  154.703
 4.1176  23956.2  154.764
 4.3156  24752.4  157.491
 4.5136  27176.5  163.976
 4.7116  28164.2  168.08
 4.9096  27374.1  165.139
 5.1076  27131.8  164.988
 5.3056  27322.9  165.291
 5.5036  27152.3  164.679
 5.7016  27722.8  166.365
 5.8996  28258  167.186
 6.0976  29152.9  171.248
 6.2956  29046.9  170.276
 6.4936  29824.2  171.726
 6.6916  30150.7  173.664
 6.8896  30969.1  175.851
 7.0876  31819.6  178.994
 7.2856  31789.6  177.958
 7.4836  32210.7  178.552
 7.6816  33210.3  181.735
 7.8796  33760.4  183.243
 8.0776  35776.6  189.632
 8.2756  37164.2  191.891
 8.4736  37979.9  193.787
 8.6716  37353.7  192.801
 8.8696  38199.8  195.505
 9.0676  37365.7  192.676
 9.2656  36134.4  190.178
 9.4636  35326.7  186.487
 9.6616  34505.6  185.045
 9.8596  34075.8  183.308
 10.0576  31688.5  177.434
 10.2556  31036  176.051
 10.4536  30805  174.986
 10.6516  31111.2  176.075
 10.8496  28297.3  167.346
 11.0476  27508.5  165.008
 11.2456  27647.7  165.969
 11.4436  27488.8  164.642
 11.6416  26595.2  162.291
 11.8396  25367.6  158.716
 12.0376  24680.7  156.193
 12.2356  24736.2  156.777
 12.4336  24328.6  155.028
 12.6316  24323.4  155.28
 12.8296  24446.2  155.285
 13.0276  24576  155.903
 13.2256  24595.3  156.327
 13.4236  24814.9  156.794
 13.6216  25054.8  157.547
 13.8196  27200.5  163.624
 14.0176  24207.6  154.837
 14.2156  23646.5  152.158
 14.4136  22587.6  150.101
 14.6116  22399.3  148.67
 14.8096  21548.6  145.805
 15.0076  20655.1  146.659
 15.2056  19708.2  139.049
 15.4036  18736.2  136.408
 15.6016  18282.7  133.832
 15.7996  17910.6  132.732
 15.9976  17773.9  135.752
 16.1956  17303.6  131.246
 16.3936  16910  128.915
 16.5916  16689  128.706
 16.7896  16700.2  128.825
 16.9876  16553.3  129.709
 17.1856  16097.2  126.276
 17.3836  15855.9  125.24
 17.5816  15261.5  123.351
 17.7796  15392  123.808
 17.9776  15090.8  123.373
 18.1756  15390.5  123.319
 18.3736  15198.8  123.043
 18.5716  14686  120.696
 18.7696  14761.4  120.561
 18.9676  14607.1  119.726
 19.1656  14234.7  118.786
 19.3636  14282.1  119.181
 19.5616  14077.3  118.49
 19.7596  14455.4  119.471
 19.9576  14917.5  121.41
 20.1556  14114.4  118.614
 20.3536  13743.5  116.431
 20.5516  13457.8  115.662
 20.7496  13227  114.6
 20.9476  13392.4  115.073
 21.1456  13328.1  115.12
 21.3436  13256.5  114.761
 21.5416  13043  113.849
 21.7396  12957.4  113.316
 21.9376  12798.1  112.393
 22.1356  12929.9  113.085
 22.3336  12721.5  112.456
 22.5316  12672.5  112.334
 22.7296  12505.2  110.961
 22.9276  12378.5  111.061
 23.1256  12634  111.685
 23.3236  12929  113.562
 23.5216  12740.5  112.356
 23.7196  12668.9  112.003
 23.9176  12678.8  111.787
 24.1156  12385.7  110.937
 24.3136  12248.4  111.141
 24.5116  12246.4  110.644
 24.7096  11895.6  108.861
 24.9076  11830.2  108.603
 25.1056  11503.3  107.555
 25.3036  11185.9  105.57
 25.5016  11241.3  105.872
 25.6996  11181.2  105.169
 25.8976  11364  106.461
 26.0956  11173.1  105.582
 26.2936  11137  105.06
 26.4916  11203.3  105.228
 26.6896  10938.4  104.285
 26.8876  10862.5  103.776
 27.0856  10695.8  103.047
 27.2836  10494.8  102.019
 27.4816  10453.6  101.695
 27.6796  10306.8  101.335
 27.8776  10643.7  102.839
 28.0756  10249.8  101.215
 28.2736  10253.1  100.803
 28.4716  10062.4  99.9225
 28.6696  10091  99.9029
 28.8676  10003.8  99.8275
 29.0656  9802.13  98.804
 29.2636  9873.29  98.9325
 29.4616  9609.99  97.7982
 29.6596  9492.54  96.7672
 29.8576  9267.22  96.2883
 30.0556  9464.25  97.1888
 30.2536  9656.7  97.9594
 30.4516  9661.02  97.6227
 30.6496  9677.6  97.4431
 30.8476  9528.69  97.1337
 31.0456  9691.58  97.9199
 31.2436  9596.27  96.6971
 31.4416  9380.99  95.7776
 31.6396  9355.22  95.6862
 31.8376  9550.32  96.2048
 32.0356  9450.42  96.2741
 32.2336  9543.15  96.1452
 32.4316  9121.58  94.3598
 32.6296  9087.16  94.0515
 32.8276  9067.86  93.7472
 33.0256  8993.59  93.4211
 33.2236  9091.91  94.0857
 33.4216  9061.22  93.6163
 33.6196  8887.59  92.9971
 33.8176  8776.81  92.5918
 34.0156  8846.81  92.5796
 34.2136  8855.46  92.6467
 34.4116  8710.23  92.1685
 34.6096  8778.76  92.2896
 34.8076  8580.84  91.6612
 35.0056  8727.54  92.105
 35.2036  8876.22  93.1107
 35.4016  8522.45  91.1578
 35.5996  8528.85  91.2248
 35.7976  8481.8  91.2487
 35.9956  8688.89  91.9997
 36.1936  8618.51  91.4698
 36.3916  8369.29  90.2957
 36.5896  8423.67  91.6208
 36.7876  8372.79  90.7338
 36.9856  8074.32  89.1269
 37.1836  8191.26  88.8696
 37.3816  8186.72  89.2207
 37.5796  8255.77  91.3317
 37.7776  8309.1  89.9817
 37.9756  8311.79  89.8777
 38.1736  8241.94  89.6945
 38.3716  8214.06  89.8078
 38.5696  8000.39  89.0081
 38.7676  8130.18  89.2255
 38.9656  8196.38  89.2168
 39.1636  8144.22  89.2035
 39.3616  8155.38  89.1927
 39.5596  7876.92  88.4749
 39.7576  7902.51  88.0336
 39.9556  8051.03  88.4966
 40.1536  8083.79  88.8741
 40.3516  8198.66  89.5121
 40.5496  8070.14  89.0671
 40.7476  8111.35  89.2968
 40.9456  8141.69  89.2134
 41.1436  8060.2  88.489
 41.3416  7898.8  87.9048
 41.5396  7996.74  88.2127
 41.7376  8108.49  89.1594
 41.9356  7919.06  87.9754
 42.1336  8128.27  89.2708
 42.3316  7906.14  88.2473
 42.5296  7969.57  88.1156
 42.7276  8020.83  88.6406
 42.9256  7902.48  87.8534
 43.1236  7877.5  87.8257
 43.3216  8004.93  88.2711
 43.5196  7907.95  87.7934
 43.7176  7777.33  87.4767
 43.9156  7688.99  86.8916
 44.1136  7573.09  85.7868
 44.3116  7612.99  86.0233
 44.5096  7661.98  86.6144
 44.7076  7438.87  85.2739
 44.9056  7794.27  87.1567
 45.1036  7718.4  86.3566
 45.3016  7613.91  86.2716
 45.4996  7589.23  86.0707
 45.6976  7598.88  86.307
 45.8956  7705.07  86.7012
 46.0936  7675.69  86.4891
 46.2916  7670.22  86.4952
 46.4896  7808.99  87.3029
 46.6876  7559.61  86.6209
 46.8856  7539.59  85.7655
 47.0836  7585.34  86.2702
 47.2816  7466.79  85.4737
 47.4796  7643  86.5864
 47.6776  7497.37  86.7226
 47.8756  7575.57  86.321
 48.0736  7516.87  86.4627
 48.2716  7461.47  85.9887
 48.4696  7618.28  86.4441
 48.6676  7515.47  86.4445
 48.8656  7535.1  86.2787
 49.0636  7596.63  86.5757
 49.2616  7438.45  85.5992
 49.4596  7415.23  85.2657
 49.6576  7446.05  85.5372
 49.8556  7418.8  85.4009
 50.0536  7381.21  85.6362
 50.2516  7386.74  85.8067
 50.4496  7260.27  84.7165
 50.6476  7409.33  85.2537
 50.8456  7378.83  85.1608
 51.0436  7131.68  84.1856
 51.2416  7074.44  83.5205
 51.4396  7023.66  83.6242
 51.6376  7105.3  83.9221
 51.8356  6995.89  82.8913
 52.0336  7079.1  83.9189
 52.2316  7028.8  83.9824
 52.4296  7049.6  83.8007
 52.6276  6918.59  83.1346
 52.8256  7082.25  83.6569
 53.0236  7228.46  85.1604
 53.2216  7109.07  84.5015
 53.4196  6992.47  83.7018
 53.6176  7080.95  84.7465
 53.8156  7023.65  84.0565
 54.0136  6751.39  82.596
 54.2116  6874.61  82.975
 54.4096  6709.82  82.0429
 54.6076  6702.33  82.3429
 54.8056  6631.75  81.6797
 55.0036  6569.31  81.7209
 55.2016  6692.85  82.0306
 55.3996  6539.17  81.0242
 55.5976  6556.59  81.3322
 55.7956  6643.35  81.6851
 55.9936  6699.25  82.1432
 56.1916  6451.81  80.649
 56.3896  6411.31  80.3809
 56.5876  6372.47  80.7014
 56.7856  6341.08  79.9954
 56.9836  6559.57  81.1212
 57.1816  6443.19  80.6661
 57.3796  6349.27  79.9803
 57.5776  6466.33  80.6047
 57.7756  6277.66  80.1067
 57.9736  6306.92  79.9605
 58.1716  6305.43  80.2222
 58.3696  6042.35  78.2798
 58.5676  6078.89  77.9817
 58.7656  6063.35  78.5654
 58.9636  6079.25  78.6964
 59.1616  6083.66  78.8598
 59.3596  6223.87  79.0213
 59.5576  6044.23  77.9295
 59.7556  5974.91  77.8974
 59.9536  6003.21  77.9808
 60.1516  6020.92  78.9434
 60.1996  6083.78  82.5121