Folder: echemistpy/docs/examples/XRD/IS17_D/Data/IS17_D (part 26)

File: 17_Db_f00072.xye
# /beamlines/bl04/projects/cycle2025-II/20250340211-lsimonelli/DATA/IS17_D/17_Db_f00072.xye : mythproc.py merge -s 0.006 -l 0.5 -f /beamlines/bl04/inhouse/ff/FlatField/ff_20Nov2024rod8mm60s_17keV.raw -b True -c true -o xye /beamlines/bl04/projects/cycle2025-II/20250340211-lsimonelli/DATA/IS17_D/17_Db_00072.dat
# IsMon = [6778571, 6770871, 6772292]  IsPos = [-1.5000, -2.4884, -3.4989]
# Wave = 0.4962  CalPath /beamlines/bl04/projects/cycle2025-II/20250340211-lsimonelli/DATA/Align/Si_Pos1_25keV_f00001.cal
# Date = 2025-09-24_13:44:26 Dt = 4.8000  Bin = 0.0060  <imon> = 6773911 +/- 3346 (Min/Max) 6770871 / 6778571
# icurr 251.6160  mocoIn 1.7166E-05  mocoOut 0.8054  i15 7.097e+06  imon 6.77391e+06  i7 4.6667  iEMpd_timer 4.8000  iEMpd_1 3.3653E-08  iEMpd_2 7.8058E-08  iEMpd_3 1.5599E-08  iEMpd_4 4.6835E-08  iEMhp_timer 4.8000  iEMhp_1 4.9156E-06  iEMhp_2 -2.5906E-08  iEMhp_3 -2.5371E-08  iEMhp_4 -2.2290E-08
#      9776
 1.7416  69172.7  262.992
 1.9396  47046.4  217.167
 2.1376  34466  185.874
 2.3356  30995.6  175.899
 2.5336  30603.7  175.399
 2.7316  26312.9  162.8
 2.9296  24990.7  158.809
 3.1276  24635.4  157.208
 3.3256  23773.6  154.134
 3.5236  25501.1  159.431
 3.7216  23464.4  154.17
 3.9196  23028.5  151.94
 4.1176  22868.2  151.192
 4.3156  23901.8  154.763
 4.5136  26782.9  162.798
 4.7116  27471.2  166.008
 4.9096  26727  163.176
 5.1076  26245  162.255
 5.3056  26281.3  162.119
 5.5036  25883.7  160.8
 5.7016  26428.1  162.434
 5.8996  26982.7  163.369
 6.0976  27777.5  167.138
 6.2956  28004.2  167.205
 6.4936  28625  168.235
 6.6916  29041.6  170.441
 6.8896  30051.2  173.223
 7.0876  31305.7  177.443
 7.2856  30935.2  175.548
 7.4836  31736.7  177.152
 7.6816  32314  179.274
 7.8796  32934.3  181.029
 8.0776  36430.7  191.397
 8.2756  37270.3  192.187
 8.4736  36850.7  190.922
 8.6716  36478.3  190.577
 8.8696  38110.6  195.244
 9.0676  37259.8  192.373
 9.2656  35052.7  187.281
 9.4636  34296.9  183.728
 9.6616  33411.3  182.065
 9.8596  32871  180.032
 10.0576  30909.7  175.263
 10.2556  29984  173.043
 10.4536  33366.9  182.119
 10.6516  33965.7  183.976
 10.8496  27342.3  164.483
 11.0476  27235.7  164.185
 11.2456  29840.7  172.446
 11.4436  26833.9  162.663
 11.6416  25627.7  159.316
 11.8396  24739.9  156.712
 12.0376  23998.4  154.02
 12.2356  25436.3  158.993
 12.4336  24514.4  155.625
 12.6316  23633  153.048
 12.8296  24167.7  154.405
 13.0276  24118.8  154.458
 13.2256  23902.3  154.112
 13.4236  24165.9  154.726
 13.6216  24440.5  155.592
 13.8196  27323.5  163.988
 14.0176  23563.8  152.777
 14.2156  23274.1  150.95
 14.4136  21806.4  147.489
 14.6116  21504.6  145.669
 14.8096  20805.7  143.269
 15.0076  20236.5  145.159
 15.2056  18884.7  136.14
 15.4036  18254.1  134.665
 15.6016  17767.3  131.96
 15.7996  17570.5  131.492
 15.9976  17190.1  133.488
 16.1956  16858.4  129.521
 16.3936  16512.8  127.37
 16.5916  16471.7  127.853
 16.7896  16351.7  127.446
 16.9876  16098.8  127.918
 17.1856  15913.8  125.566
 17.3836  15056.7  122.042
 17.5816  14959.1  122.124
 17.7796  15209.8  123.066
 17.9776  15118.2  123.489
 18.1756  16283  126.839
 18.3736  15772.3  125.344
 18.5716  14370  119.397
 18.7696  14445.4  119.268
 18.9676  14216.6  118.105
 19.1656  13817  117.037
 19.3636  13810.2  117.204
 19.5616  13724.9  117.002
 19.7596  14161.2  118.235
 19.9576  14598.3  120.094
 20.1556  13388.8  115.535
 20.3536  13440.1  115.136
 20.5516  13136.1  114.265
 20.7496  13061.5  113.783
 20.9476  13363.1  114.938
 21.1456  13220.2  114.664
 21.3436  12799.2  112.768
 21.5416  12835.1  112.939
 21.7396  12526.5  111.417
 21.9376  12607.4  111.552
 22.1356  13031.2  113.679
 22.3336  12470.5  111.37
 22.5316  12525.2  111.702
 22.7296  12205.2  109.644
 22.9276  12151.5  110.06
 23.1256  12585.2  111.48
 23.3236  12494.6  111.618
 23.5216  12580.3  111.634
 23.7196  12357.1  110.799
 23.9176  12334.9  110.234
 24.1156  12078.7  109.537
 24.3136  11844.6  109.288
 24.5116  12076.9  109.852
 24.7096  11840.3  108.602
 24.9076  11619.1  107.611
 25.1056  11326.3  106.714
 25.3036  11007.8  104.733
 25.5016  10999.3  104.723
 25.6996  10951.6  104.083
 25.8976  11269.8  106.012
 26.0956  10972  104.623
 26.2936  10867.7  103.789
 26.4916  11016.6  104.354
 26.6896  10763.2  103.454
 26.8876  10675.2  102.876
 27.0856  10566.4  102.424
 27.2836  10451.6  101.749
 27.4816  10375.4  101.311
 27.6796  10178.7  100.708
 27.8776  10731.2  103.254
 28.0756  10101.6  100.489
 28.2736  10214.6  100.62
 28.4716  9870.59  98.9628
 28.6696  10009.3  99.4986
 28.8676  9876.12  99.184
 29.0656  9650.78  98.0274
 29.2636  9692.54  98.026
 29.4616  9315.76  96.3082
 29.6596  9386.33  96.2414
 29.8576  9355.73  96.765
 30.0556  9445.9  97.1037
 30.2536  9400.79  96.6716
 30.4516  9598.49  97.2859
 30.6496  9465.6  96.3549
 30.8476  9353.17  96.2174
 31.0456  9523.41  97.0386
 31.2436  9462.13  95.9956
 31.4416  9162.26  94.653
 31.6396  9617.15  97.0166
 31.8376  9345.19  95.153
 32.0356  9083.99  94.3994
 32.2336  9308.44  94.9371
 32.4316  8867.18  93.0795
 32.6296  8885.71  93.0088
 32.8276  9028.32  93.5423
 33.0256  8765.11  92.2337
 33.2236  9000.03  93.5962
 33.4216  8812.15  92.3082
 33.6196  8730.14  92.1791
 33.8176  8862.13  93.0392
 34.0156  8729.37  91.9623
 34.2136  8677.71  91.7062
 34.4116  8447.57  90.6598
 34.6096  8632.82  91.5187
 34.8076  8384.77  90.6069
 35.0056  8514.18  90.9679
 35.2036  8733  92.3536
 35.4016  8398.53  90.4947
 35.5996  8405.38  90.5641
 35.7976  8412.8  90.872
 35.9956  8549.66  91.2581
 36.1936  8500.96  90.8475
 36.3916  8280.26  89.8591
 36.5896  8459.79  91.8183
 36.7876  8058.92  89.0363
 36.9856  8017.83  88.8336
 37.1836  7972.9  87.7018
 37.3816  7995.95  88.1871
 37.5796  8105.39  90.4953
 37.7776  8138.84  89.0305
 37.9756  8076.16  88.5726
 38.1736  8232.39  89.6176
 38.3716  8075.56  89.0347
 38.5696  7976.72  88.866
 38.7676  7814.48  87.4806
 38.9656  7919.06  87.6894
 39.1636  7985.42  88.3179
 39.3616  7949.98  88.0763
 39.5596  7818.1  88.176
 39.7576  7809.27  87.5168
 39.9556  7902.72  87.6776
 40.1536  8047.48  88.6714
 40.3516  8016.4  88.5083
 40.5496  8016.92  88.7725
 40.7476  8006.71  88.7189
 40.9456  8057.98  88.7583
 41.1436  8100.2  88.7014
 41.3416  7879.15  87.8316
 41.5396  7876.35  87.6157
 41.7376  8048.3  88.8319
 41.9356  7852.09  87.5978
 42.1336  8024.44  88.6898
 42.3316  7769.62  87.4919
 42.5296  7960.03  88.0672
 42.7276  7828.08  87.5676
 42.9256  7722.94  86.8539
 43.1236  7812.68  87.4643
 43.3216  7867.31  87.5082
 43.5196  7736.39  86.8445
 43.7176  7739.47  87.2609
 43.9156  7475.27  85.6929
 44.1136  7540.74  85.6213
 44.3116  7565.44  85.7713
 44.5096  7516.81  85.8046
 44.7076  7569.96  86.035
 44.9056  7696.23  86.5947
 45.1036  7707.55  86.2785
 45.3016  7525.73  85.7556
 45.4996  7517.34  85.6485
 45.6976  7469.55  85.5596
 45.8956  7528.9  85.7025
 46.0936  7652.78  86.1703
 46.2916  7594.05  86.0535
 46.4896  7599.07  86.1188
 46.6876  7414.13  85.7744
 46.8856  7338.16  84.6006
 47.0836  7478.82  85.6583
 47.2816  7313.14  84.599
 47.4796  7433.98  85.4036
 47.6776  7294.18  85.5381
 47.8756  7436.19  85.5304
 48.0736  7340.36  85.4361
 48.2716  7251.13  84.7387
 48.4696  7440.27  85.4156
 48.6676  7321.76  85.3275
 48.8656  7476.39  85.9449
 49.0636  7475.27  85.8748
 49.2616  7319.82  85.0305
 49.4596  7317.96  84.5625
 49.6576  7251.71  84.4096
 49.8556  7304.71  84.7413
 50.0536  7362.8  85.5285
 50.2516  7339.56  85.5308
 50.4496  7281.11  84.8438
 50.6476  7264.78  84.4202
 50.8456  7285.62  84.6192
 51.0436  7037.41  83.6432
 51.2416  7002.66  83.098
 51.4396  6844.62  82.5678
 51.6376  7034.26  83.5239
 51.8356  7008.09  82.9844
 52.0336  6979.71  83.3145
 52.2316  7036.76  84.0187
 52.4296  6962.98  83.2773
 52.6276  6882.56  82.9066
 52.8256  7009.34  83.2099
 53.0236  6984.53  83.7135
 53.2216  7059.29  84.1825
 53.4196  6888.95  83.0844
 53.6176  7016.85  84.3637
 53.8156  6989.85  83.863
 54.0136  6678.04  82.1541
 54.2116  6883.06  83.0226
 54.4096  6621  81.5108
 54.6076  6587.73  81.6465
 54.8056  6597.94  81.4602
 55.0036  6655.58  82.1031
 55.2016  6438.46  80.4303
 55.3996  6370.05  79.962
 55.5976  6427.36  80.5327
 55.7956  6457.35  80.5308
 55.9936  6582.34  81.4195
 56.1916  6517.83  81.0573
 56.3896  6284.26  79.5882
 56.5876  6256.14  79.9559
 56.7856  6363.66  80.1314
 56.9836  6360.24  79.8666
 57.1816  6371.69  80.2269
 57.3796  6259.85  79.4329
 57.5776  6343.37  79.8435
 57.7756  6144.33  79.2608
 57.9736  6198.88  79.2679
 58.1716  6061.21  78.6548
 58.3696  5932.19  77.5827
 58.5676  6048.27  77.8085
 58.7656  5911.87  77.5923
 58.9636  6042.1  78.4678
 59.1616  5913.12  77.7529
 59.3596  5876.24  76.7831
 59.5576  5909.27  77.0574
 59.7556  5890.64  77.349
 59.9536  5886.13  77.2195
 60.1516  5745.91  77.1223
 60.1996  5974.28  81.7692

File: 17_Db_f00073.xye
# /beamlines/bl04/projects/cycle2025-II/20250340211-lsimonelli/DATA/IS17_D/17_Db_f00073.xye : mythproc.py merge -s 0.006 -l 0.5 -f /beamlines/bl04/inhouse/ff/FlatField/ff_20Nov2024rod8mm60s_17keV.raw -b True -c true -o xye /beamlines/bl04/projects/cycle2025-II/20250340211-lsimonelli/DATA/IS17_D/17_Db_00073.dat
# IsMon = [6780390, 6781851, 6779337]  IsPos = [-1.4999, -2.4883, -3.4988]
# Wave = 0.4962  CalPath /beamlines/bl04/projects/cycle2025-II/20250340211-lsimonelli/DATA/Align/Si_Pos1_25keV_f00001.cal
# Date = 2025-09-24_14:00:56 Dt = 4.8000  Bin = 0.0060  <imon> = 6780526 +/- 1031 (Min/Max) 6779337 / 6781851
# icurr 252.3100  mocoIn 1.7214E-05  mocoOut 0.8077  i15 7.10237e+06  imon 6.78053e+06  i7 6.3333  iEMpd_timer 4.8000  iEMpd_1 3.2954E-08  iEMpd_2 7.9009E-08  iEMpd_3 1.5314E-08  iEMpd_4 4.7378E-08  iEMhp_timer 4.8000  iEMhp_1 4.9280E-06  iEMhp_2 -2.5754E-08  iEMhp_3 -2.4775E-08  iEMhp_4 -2.1872E-08
#      9776
 1.7416  68725.9  262.234
 1.9396  47608.5  218.538
 2.1376  34326.9  185.566
 2.3356  31218.8  176.593
 2.5336  30526  175.238
 2.7316  26697.5  163.987
 2.9296  25056.3  159.015
 3.1276  24604.3  157.138
 3.3256  24313.5  155.876
 3.5236  25589.9  159.695
 3.7216  23447.3  154.109
 3.9196  23472.4  153.395
 4.1176  22967.8  151.534
 4.3156  23883.4  154.704
 4.5136  26919.2  163.198
 4.7116  27412.8  165.825
 4.9096  26792.5  163.366
 5.1076  26286  162.396
 5.3056  26319.6  162.23
 5.5036  26030.8  161.241
 5.7016  26493.3  162.634
 5.8996  26974.3  163.345
 6.0976  27966.5  167.715
 6.2956  27917  166.931
 6.4936  28668.6  168.367
 6.6916  29095.4  170.595
 6.8896  30096.5  173.351
 7.0876  30960  176.564
 7.2856  30746.3  175.005
 7.4836  31499.9  176.572
 7.6816  31873.6  178.056
 7.8796  33029.7  181.259
 8.0776  36676.9  192.008
 8.2756  37346.7  192.361
 8.4736  37201.2  191.791
 8.6716  36485  190.555
 8.8696  37976.4  194.932
 9.0676  37348  192.633
 9.2656  35427  188.306
 9.4636  34263.4  183.656
 9.6616  33395  182.037
 9.8596  32866.6  180.02
 10.0576  30798.5  174.934
 10.2556  30075.5  173.315
 10.4536  34281.5  184.604
 10.6516  34079.7  184.285
 10.8496  27464.7  164.865
 11.0476  27430.9  164.778
 11.2456  30015.9  172.933
 11.4436  26687  162.232
 11.6416  25769.4  159.752
 11.8396  24752.9  156.776
 12.0376  24115.2  154.395
 12.2356  25745.8  159.943
 12.4336  24308.1  154.966
 12.6316  23659.4  153.145
 12.8296  24016.3  153.915
 13.0276  24083  154.331
 13.2256  23948.4  154.26
 13.4236  24180.1  154.779
 13.6216  24434.1  155.583
 13.8196  27367.6  164.154
 14.0176  23520.2  152.724
 14.2156  23183.4  150.666
 14.4136  21925.8  147.888
 14.6116  21695.3  146.31
 14.8096  20871.7  143.488
 15.0076  20280.1  145.328
 15.2056  19185.5  137.196
 15.4036  18281.5  134.735
 15.6016  17989.4  132.757
 15.7996  17531.2  131.333
 15.9976  17001.9  132.201
 16.1956  16893.3  129.67
 16.3936  16456.3  127.174
 16.5916  16563.7  128.224
 16.7896  16441.8  127.814
 16.9876  16147.5  128.102
 17.1856  15983.6  125.837
 17.3836  15184.1  122.559
 17.5816  15101.6  122.702
 17.7796  15200.9  123.032
 17.9776  15164.5  123.686
 18.1756  16034.2  125.868
 18.3736  15888.1  125.79
 18.5716  14455.3  119.743
 18.7696  14554.8  119.725
 18.9676  14196.4  118.048
 19.1656  13937.9  117.539
 19.3636  13804.6  117.17
 19.5616  13870.6  117.62
 19.7596  14096.9  117.978
 19.9576  14637.7  120.265
 20.1556  13391.8  115.54
 20.3536  13300.5  114.549
 20.5516  13317.6  115.053
 20.7496  12945  113.378
 20.9476  13457.1  115.345
 21.1456  13367.4  115.295
 21.3436  12902.6  113.217
 21.5416  12770.6  112.654
 21.7396  12585.4  111.679
 21.9376  12676.8  111.86
 22.1356  13075.9  113.721
 22.3336  12527.4  111.598
 22.5316  12472.9  111.451
 22.7296  12216.9  109.675
 22.9276  12050.4  109.581
 23.1256  12556.9  111.345
 23.3236  12479.9  111.57
 23.5216  12463.1  111.134
 23.7196  12214.6  109.974
 23.9176  12498.8  110.989
 24.1156  12152.1  109.902
 24.3136  12065.9  110.309
 24.5116  12145.7  110.193
 24.7096  11749.8  108.183
 24.9076  11572.2  107.401
 25.1056  11383  106.99
 25.3036  11017.9  104.775
 25.5016  11122.2  105.307
 25.6996  11078.4  104.684
 25.8976  11252.3  105.939
 26.0956  10954.9  104.551
 26.2936  10880.6  103.844
 26.4916  11191.5  105.178
 26.6896  10768.3  103.474
 26.8876  10551.5  102.284
 27.0856  10534.8  102.267
 27.2836  10347.9  101.302
 27.4816  10389.5  101.38
 27.6796  10218  100.904
 27.8776  10809.1  103.623
 28.0756  10087.8  100.407
 28.2736  10170.7  100.405
 28.4716  10081.4  100.015
 28.6696  9944.78  99.1761
 28.8676  9833.55  98.9785
 29.0656  9716.7  98.3764
 29.2636  9670.15  97.9111
 29.4616  9425.98  96.8591
 29.6596  9350.47  96.0429
 29.8576  9337.35  96.6522
 30.0556  9412.82  96.9271
 30.2536  9390.47  96.6013
 30.4516  9590.2  97.2745
 30.6496  9533.29  96.7035
 30.8476  9400.88  96.4796
 31.0456  9629.49  97.6003
 31.2436  9436.33  95.8835
 31.4416  9283.13  95.2709
 31.6396  9692.71  97.3981
 31.8376  9412.94  95.5047
 32.0356  9285.1  95.4402
 32.2336  9264.22  94.7257
 32.4316  9051.15  93.9946
 32.6296  8950.79  93.3523
 32.8276  9022.44  93.5142
 33.0256  8831.46  92.5769
 33.2236  9039.84  93.8096
 33.4216  8903.98  92.7965
 33.6196  8754.52  92.2975
 33.8176  8865.21  93.0562
 34.0156  8716.77  91.897
 34.2136  8679.14  91.7127
 34.4116  8520.28  91.1585
 34.6096  8696.47  91.8559
 34.8076  8503.78  91.2422
 35.0056  8562.34  91.2252
 35.2036  8677.89  92.0732
 35.4016  8460.89  90.8243
 35.5996  8410.73  90.5892
 35.7976  8373.5  90.6599
 35.9956  8528.63  91.1458
 36.1936  8565.32  91.1865
 36.3916  8288.92  89.8631
 36.5896  8326.49  91.0954
 36.7876  8019.38  88.8021
 36.9856  7922.37  88.2884
 37.1836  7964.87  87.639
 37.3816  7990.54  88.1469
 37.5796  8136.12  90.6663
 37.7776  8128.63  88.9895
 37.9756  8176.71  89.1442
 38.1736  8346.24  90.255
 38.3716  8192.74  89.6962
 38.5696  8038.52  89.2164
 38.7676  7974.77  88.3715
 38.9656  8030.12  88.3046
 39.1636  8084.74  88.8748
 39.3616  7967.7  88.1686
 39.5596  7837.22  88.2809
 39.7576  7845.07  87.717
 39.9556  7772.88  86.9511
 40.1536  7966.52  88.2236
 40.3516  8012.23  88.4847
 40.5496  8002.13  88.6848
 40.7476  8075.93  89.1008
 40.9456  8035.57  88.6373
 41.1436  8007.94  88.2003
 41.3416  7830.62  87.5241
 41.5396  7862.18  87.4668
 41.7376  7896.91  87.9954
 41.9356  7899.31  87.8673
 42.1336  8065.76  88.9259
 42.3316  7825.82  87.7979
 42.5296  8028.53  88.4376
 42.7276  7922.89  88.1021
 42.9256  7869.07  87.6728
 43.1236  7832.24  87.5663
 43.3216  7835.92  87.3359
 43.5196  7728.8  86.7986
 43.7176  7660.7  86.8178
 43.9156  7455.28  85.5613
 44.1136  7569.71  85.7685
 44.3116  7579.35  85.8402
 44.5096  7426.3  85.2715
 44.7076  7610.51  86.2478
 44.9056  7682.45  86.5309
 45.1036  7560.84  85.4688
 45.3016  7718.64  86.8647
 45.4996  7571.57  85.9668
 45.6976  7438.85  85.3922
 45.8956  7548.84  85.8236
 46.0936  7626.86  86.2156
 46.2916  7560.81  85.8713
 46.4896  7481.76  85.4556
 46.6876  7416.98  85.8074
 46.8856  7523.49  85.6644
 47.0836  7466.31  85.5987
 47.2816  7412.95  85.1652
 47.4796  7449.39  85.4909
 47.6776  7389.51  86.1034
 47.8756  7465.69  85.6999
 48.0736  7404.37  85.81
 48.2716  7238.27  84.6938
 48.4696  7456.41  85.5251
 48.6676  7415.13  85.8694
 48.8656  7466.39  85.8762
 49.0636  7461.94  85.8077
 49.2616  7330.74  84.9743
 49.4596  7305.49  84.6496
 49.6576  7292.73  84.6456
 49.8556  7322.53  84.8397
 50.0536  7332.04  85.3502
 50.2516  7367.45  85.6989
 50.4496  7291.66  84.9
 50.6476  7236.43  84.2489
 50.8456  7310.29  84.7759
 51.0436  7015.7  83.5004
 51.2416  7121.68  83.8002
 51.4396  6854.32  82.612
 51.6376  6988.81  83.2354
 51.8356  6950.42  82.6265
 52.0336  7038.65  83.6812
 52.2316  6942.95  83.4614
 52.4296  7054.67  83.8294
 52.6276  6875.14  82.8624
 52.8256  7036.09  83.374
 53.0236  7132.45  84.5977
 53.2216  6992.38  83.7974
 53.4196  6959.39  83.4954
 53.6176  6808.97  83.1075
 53.8156  6919.22  83.4372
 54.0136  6669.94  82.1048
 54.2116  6836.84  82.754
 54.4096  6582.02  81.2674
 54.6076  6660.45  82.0899
 54.8056  6516.87  80.9811
 55.0036  6420.16  80.7742
 55.2016  6688.82  81.9752
 55.3996  6411.56  80.2337
 55.5976  6479.2  80.8466
 55.7956  6490.76  80.7326
 55.9936  6578.31  81.4022
 56.1916  6484.43  80.8585
 56.3896  6341.29  79.9424
 56.5876  6350.13  80.552
 56.7856  6303.31  79.7564
 56.9836  6447  80.4237
 57.1816  6401.65  80.5122
 57.3796  6246.69  79.3509
 57.5776  6324.55  79.7348
 57.7756  6147.91  79.2779
 57.9736  6213.59  79.3687
 58.1716  6157.01  79.2651
 58.3696  5934.56  77.5784
 58.5676  5950.67  77.1603
 58.7656  6033.06  78.371
 58.9636  5956.68  77.8934
 59.1616  6005.6  78.3529
 59.3596  5929.28  77.1283
 59.5576  6078.14  78.1482
 59.7556  6008.46  78.1162
 59.9536  6011.17  78.0329
 60.1516  5932.07  78.3591
 60.1996  0.0000000E+00  0.0000000E+00