Folder: echemistpy/docs/examples/XRD/IS17_D/Data/IS17_D (part 3)

File: 17_Da_f00009.xye
# /beamlines/bl04/projects/cycle2025-II/20250340211-lsimonelli/DATA/IS17_D/17_Da_f00009.xye : mythproc.py merge -s 0.006 -l 0.5 -f /beamlines/bl04/inhouse/ff/FlatField/ff_20Nov2024rod8mm60s_17keV.raw -b True -c true -o xye /beamlines/bl04/projects/cycle2025-II/20250340211-lsimonelli/DATA/IS17_D/17_Da_00009.dat
# IsMon = [6770755, 6778643, 6773888]  IsPos = [-1.5000, -2.4886, -3.4986]
# Wave = 0.4962  CalPath /beamlines/bl04/projects/cycle2025-II/20250340211-lsimonelli/DATA/Align/Si_Pos1_25keV_f00001.cal
# Date = 2025-09-23_20:03:32 Dt = 4.8000  Bin = 0.0060  <imon> = 6774429 +/- 3243 (Min/Max) 6770755 / 6778643
# icurr 251.7852  mocoIn 1.7176E-05  mocoOut 0.8058  i15 7.0858e+06  imon 6.77443e+06  i7 5.6667  iEMpd_timer 4.8000  iEMpd_1 3.3875E-08  iEMpd_2 7.7653E-08  iEMpd_3 1.6379E-08  iEMpd_4 4.7198E-08  iEMhp_timer 4.8000  iEMhp_1 4.9203E-06  iEMhp_2 -2.5744E-08  iEMhp_3 -2.2731E-08  iEMhp_4 -2.0997E-08
#      9776
 1.7416  68660.9  262.178
 1.9396  43725.4  209.487
 2.1376  30754.3  175.689
 2.3356  27537.1  165.897
 2.5336  29353.4  171.884
 2.7316  24248.9  156.277
 2.9296  22730.4  151.473
 3.1276  22412.9  149.986
 3.3256  21926.1  148.007
 3.5236  23890.8  154.462
 3.7216  21778.9  148.542
 3.9196  21649.6  147.352
 4.1176  21243  145.744
 4.3156  22541.7  150.288
 4.5136  25601.8  159.15
 4.7116  26268.9  162.337
 4.9096  25494.8  159.377
 5.1076  24989.6  158.359
 5.3056  25215.1  158.876
 5.5036  24810.1  157.437
 5.7016  25257.2  158.8
 5.8996  25789.2  159.702
 6.0976  26621.8  163.668
 6.2956  26997.2  164.155
 6.4936  27760.2  165.681
 6.6916  28242.7  168.088
 6.8896  29375.8  171.286
 7.0876  30273.2  174.527
 7.2856  29968  172.798
 7.4836  30513.8  173.711
 7.6816  31447  176.873
 7.8796  32890.7  180.86
 8.0776  36964.7  192.732
 8.2756  37263.2  192.128
 8.4736  36642.8  190.318
 8.6716  36499.7  190.565
 8.8696  37292.5  193.151
 9.0676  36551.1  190.594
 9.2656  34057.2  184.655
 9.4636  33452.4  181.44
 9.6616  32761.5  180.318
 9.8596  31522  176.327
 10.0576  30333.7  173.239
 10.2556  28780.7  169.542
 10.4536  32816.2  180.626
 10.6516  33652.3  183.128
 10.8496  26418.4  161.695
 11.0476  26618.9  162.259
 11.2456  29422.6  171.708
 11.4436  25769.9  159.416
 11.6416  25075.3  157.607
 11.8396  23856.1  153.935
 12.0376  23484.6  152.344
 12.2356  25059.4  157.833
 12.4336  24317.3  154.998
 12.6316  22661.8  149.89
 12.8296  23479.5  152.209
 13.0276  23807.9  153.444
 13.2256  23617.3  153.185
 13.4236  23568.8  152.805
 13.6216  23418.3  152.344
 13.8196  24481.8  155.267
 14.0176  23293.7  152.036
 14.2156  22720  149.162
 14.4136  21380.3  146.022
 14.6116  21277.5  144.909
 14.8096  20337.7  141.66
 15.0076  19583.5  142.77
 15.2056  18991.5  136.483
 15.4036  18238.3  134.56
 15.6016  17725.6  131.764
 15.7996  17497.9  131.194
 15.9976  16645  130.833
 16.1956  16140.7  126.787
 16.3936  15701.6  124.248
 16.5916  15927.5  125.763
 16.7896  15686.1  124.864
 16.9876  15628.4  126.054
 17.1856  15489.9  123.759
 17.3836  14829.1  121.114
 17.5816  14434.5  119.965
 17.7796  14600.1  120.584
 17.9776  14617.1  121.451
 18.1756  15968.2  125.509
 18.3736  15475.1  124.152
 18.5716  14037.1  118.007
 18.7696  14074.6  117.743
 18.9676  13666.7  115.839
 19.1656  13568.4  116.133
 19.3636  13468.5  115.835
 19.5616  13484.4  115.971
 19.7596  13425.2  115.14
 19.9576  14097.2  118.029
 20.1556  13364.6  115.427
 20.3536  13133.7  113.817
 20.5516  12881.6  113.157
 20.7496  12560  111.602
 20.9476  12989.2  113.332
 21.1456  13185.3  114.504
 21.3436  12607.4  111.919
 21.5416  12516  111.519
 21.7396  12113.5  109.559
 21.9376  12353.9  110.419
 22.1356  12642.1  111.844
 22.3336  12512.6  111.502
 22.5316  12414.3  111.169
 22.7296  12096.7  109.109
 22.9276  12132  109.937
 23.1256  12718.5  112.04
 23.3236  12278.7  110.641
 23.5216  12168.1  109.82
 23.7196  11969  109.084
 23.9176  11917.8  108.399
 24.1156  11609.9  107.447
 24.3136  11577.9  108.059
 24.5116  11521.6  107.332
 24.7096  11468  106.9
 24.9076  11141.4  105.4
 25.1056  11176.9  105.736
 25.3036  10965.1  104.605
 25.5016  10971.2  104.595
 25.6996  10895.9  103.82
 25.8976  10928.3  104.411
 26.0956  10972.6  104.641
 26.2936  10682.8  102.892
 26.4916  10805.7  103.371
 26.6896  10375.3  101.578
 26.8876  10334.3  101.239
 27.0856  10384.9  101.484
 27.2836  10128.7  100.326
 27.4816  10293  100.91
 27.6796  9978.5  99.7283
 27.8776  10169.9  100.544
 28.0756  10043.9  100.191
 28.2736  9970.53  99.4178
 28.4716  9843.44  98.828
 28.6696  9747.54  98.1969
 28.8676  9580.96  97.6984
 29.0656  9422.6  96.8616
 29.2636  9562.4  97.2963
 29.4616  9457.32  97.0071
 29.6596  9459.51  96.5882
 29.8576  9294.26  96.418
 30.0556  9490.07  97.3062
 30.2536  9484.1  97.069
 30.4516  9184.74  95.2128
 30.6496  9204.53  95.0462
 30.8476  9125.73  95.0738
 31.0456  9121.08  95.011
 31.2436  9066.44  94.005
 31.4416  8930.66  93.4449
 31.6396  9462.82  96.2451
 31.8376  8997.44  93.404
 32.0356  8925.54  93.5864
 32.2336  8866.82  92.6811
 32.4316  8844.33  92.9562
 32.6296  8782.18  92.4076
 32.8276  8768.96  92.1789
 33.0256  8684.38  91.8101
 33.2236  8650.28  91.7824
 33.4216  8744.78  91.9972
 33.6196  8546.47  91.2414
 33.8176  8657.11  91.9586
 34.0156  8534.97  90.9243
 34.2136  8368.97  90.0835
 34.4116  8363.44  90.183
 34.6096  8389.22  90.2167
 34.8076  8284.16  90.044
 35.0056  8337.26  90.0319
 35.2036  8281.12  89.9345
 35.4016  8346.88  90.2112
 35.5996  8299.57  89.9933
 35.7976  8214.91  89.8084
 35.9956  8236.29  89.5707
 36.1936  8203.55  89.2668
 36.3916  8108.1  88.9187
 36.5896  8280.3  91.29
 36.7876  8113.71  89.3091
 36.9856  8101.68  89.2702
 37.1836  8007.28  87.8625
 37.3816  7970.35  88.0263
 37.5796  7902.85  89.3484
 37.7776  7904.62  87.7735
 37.9756  7914.43  87.7129
 38.1736  7991.96  88.3324
 38.3716  7950.86  88.3789
 38.5696  7782.17  87.7877
 38.7676  7630.56  86.4455
 38.9656  7705.94  86.5154
 39.1636  7735.39  86.9133
 39.3616  7695.63  86.6405
 39.5596  7659.08  87.2818
 39.7576  7683.96  86.799
 39.9556  7676.7  86.4088
 40.1536  7782.82  87.2047
 40.3516  7855.09  87.693
 40.5496  7853.14  87.6601
 40.7476  7728.71  87.1751
 40.9456  7896.34  87.8533
 41.1436  7806.54  87.0908
 41.3416  7809.07  87.4289
 41.5396  7812.41  87.2652
 41.7376  7763.69  87.2525
 41.9356  7664.18  86.5529
 42.1336  7709.61  86.9602
 42.3316  7687.13  87.0215
 42.5296  7755.11  86.926
 42.7276  7729.18  87.021
 42.9256  7758.92  87.0588
 43.1236  7562.3  86.0547
 43.3216  7639.68  86.35
 43.5196  7507.5  85.5217
 43.7176  7523.85  86.0416
 43.9156  7317.74  84.7585
 44.1136  7405.1  84.8181
 44.3116  7457.67  85.1394
 44.5096  7313.71  84.6141
 44.7076  7344.84  84.7019
 44.9056  7364.29  84.7285
 45.1036  7301.61  83.9991
 45.3016  7258.68  84.2456
 45.4996  7196.5  83.8234
 45.6976  7013.67  82.9195
 45.8956  7233.1  84.014
 46.0936  7243.33  83.834
 46.2916  7148.98  83.508
 46.4896  7214.44  83.9195
 46.6876  7144.37  84.2196
 46.8856  7047.06  83.0303
 47.0836  7053.57  83.2027
 47.2816  6898.27  82.1474
 47.4796  6938.8  82.4987
 47.6776  6932.46  83.3893
 47.8756  7005.38  83.0134
 48.0736  6960.7  83.186
 48.2716  6774.08  81.8943
 48.4696  6961.18  82.6189
 48.6676  6933.26  83.0329
 48.8656  6811.77  82.038
 49.0636  6904.42  82.5405
 49.2616  6702.96  81.358
 49.4596  6776.37  81.3752
 49.6576  6716.95  81.2418
 49.8556  6678.26  81.0267
 50.0536  6705.68  81.6316
 50.2516  6649.53  81.3962
 50.4496  6656.83  81.0691
 50.6476  6677.32  80.9381
 50.8456  6607.82  80.5834
 51.0436  6441.77  80.0028
 51.2416  6420.63  79.5592
 51.4396  6243.27  78.8298
 51.6376  6401.83  79.6422
 51.8356  6513.68  79.8962
 52.0336  6411.76  79.8664
 52.2316  6222.17  79.0238
 52.4296  6438.85  80.0595
 52.6276  6351.61  79.6563
 52.8256  6377.67  79.3807
 53.0236  6228.5  79.0625
 53.2216  6198.2  79.0885
 53.4196  6087.72  78.1217
 53.6176  6175.81  79.1541
 53.8156  6021.98  77.8429
 54.0136  6224.66  79.3215
 54.2116  6068.77  77.9939
 54.4096  6035.49  77.8161
 54.6076  6070.55  78.3919
 54.8056  6031.89  77.9334
 55.0036  6023.58  78.1411
 55.2016  6139.68  78.491
 55.3996  6024.05  77.7879
 55.5976  5977.95  77.6796
 55.7956  6054.05  77.9795
 55.9936  5984.14  77.6721
 56.1916  6065.23  78.2146
 56.3896  6058.85  78.1592
 56.5876  5942.14  77.9463
 56.7856  5895.71  77.1377
 56.9836  5950.17  77.283
 57.1816  6004.32  78.0122
 57.3796  6025.27  77.9105
 57.5776  6028.38  77.8957
 57.7756  5932.82  77.8895
 57.9736  5987.02  77.9302
 58.1716  5998.58  78.2339
 58.3696  5989.45  77.9218
 58.5676  5995.02  77.4516
 58.7656  5965.09  77.9147
 58.9636  6170.16  79.2781
 59.1616  5918.16  77.7542
 59.3596  6130.15  78.421
 59.5576  6160.19  78.6701
 59.7556  6077.82  78.562
 59.9536  6181.43  79.1265
 60.1516  5995.29  78.7718
 60.1996  0.0000000E+00  0.0000000E+00

File: 17_Da_f00012.xye
# /beamlines/bl04/projects/cycle2025-II/20250340211-lsimonelli/DATA/IS17_D/17_Da_f00012.xye : mythproc.py merge -s 0.006 -l 0.5 -f /beamlines/bl04/inhouse/ff/FlatField/ff_20Nov2024rod8mm60s_17keV.raw -b True -c true -o xye /beamlines/bl04/projects/cycle2025-II/20250340211-lsimonelli/DATA/IS17_D/17_Da_00012.dat
# IsMon = [6747368, 6743040, 6751474]  IsPos = [-1.5000, -2.4885, -3.4986]
# Wave = 0.4962  CalPath /beamlines/bl04/projects/cycle2025-II/20250340211-lsimonelli/DATA/Align/Si_Pos1_25keV_f00001.cal
# Date = 2025-09-23_20:53:11 Dt = 4.8000  Bin = 0.0060  <imon> = 6747294 +/- 3444 (Min/Max) 6743040 / 6751474
# icurr 249.4061  mocoIn 1.7020E-05  mocoOut 0.7983  i15 7.0585e+06  imon 6.74729e+06  i7 5.0000  iEMpd_timer 4.8000  iEMpd_1 3.5374E-08  iEMpd_2 7.9415E-08  iEMpd_3 1.7656E-08  iEMpd_4 4.8714E-08  iEMhp_timer 4.8000  iEMhp_1 4.8733E-06  iEMhp_2 -2.4778E-08  iEMhp_3 -2.3100E-08  iEMhp_4 -2.1397E-08
#      9776
 1.7416  67323.6  259.541
 1.9396  43367.2  208.574
 2.1376  30265.6  174.24
 2.3356  27103.4  164.54
 2.5336  29156.2  171.258
 2.7316  23908.1  155.206
 2.9296  22488.5  150.692
 3.1276  22022.8  148.679
 3.3256  21829.7  147.729
 3.5236  23656.7  153.732
 3.7216  21600  147.929
 3.9196  21654.5  147.365
 4.1176  20897.3  144.543
 4.3156  22335.2  149.586
 4.5136  25477.3  158.787
 4.7116  26155.9  161.986
 4.9096  25492.8  159.369
 5.1076  24547.4  156.941
 5.3056  25123.7  158.411
 5.5036  24520.5  156.503
 5.7016  24894.3  157.655
 5.8996  25499.5  158.808
 6.0976  26197.1  162.346
 6.2956  26802.4  163.572
 6.4936  27642.9  165.328
 6.6916  27994  167.348
 6.8896  29016.2  170.233
 7.0876  29875.7  173.366
 7.2856  29570.4  171.644
 7.4836  30477.3  173.605
 7.6816  31125.4  175.967
 7.8796  32355.7  179.407
 8.0776  36678  192.011
 8.2756  36965.9  191.354
 8.4736  36425  189.772
 8.6716  35865.7  188.955
 8.8696  36803.6  191.832
 9.0676  36016.3  189.14
 9.2656  33583.9  183.31
 9.4636  33149.1  180.564
 9.6616  32415.7  179.31
 9.8596  31149.9  175.313
 10.0576  29436.9  171.074
 10.2556  28568.8  168.948
 10.4536  33024.4  181.23
 10.6516  34001.9  184.104
 10.8496  26296.2  161.299
 11.0476  26441.2  161.744
 11.2456  29184.2  170.539
 11.4436  25540.3  158.701
 11.6416  24619.9  156.168
 11.8396  23725.6  153.502
 12.0376  23228.2  151.519
 12.2356  24765  156.908
 12.4336  23813.2  153.384
 12.6316  22261.7  148.553
 12.8296  23275.5  151.547
 13.0276  23579.5  152.713
 13.2256  23161.8  151.706
 13.4236  23330.7  152.028
 13.6216  23281.2  151.883
 13.8196  24241.8  154.76
 14.0176  23076  151.272
 14.2156  22558.6  148.624
 14.4136  21154.8  145.255
 14.6116  20980.2  143.889
 14.8096  20206.3  141.19
 15.0076  19435.8  142.206
 15.2056  18690.4  135.415
 15.4036  18004.3  133.714
 15.6016  17729.3  131.794
 15.7996  17452.8  131.023
 15.9976  16501.2  130.265
 16.1956  16091.9  126.556
 16.3936  15789.3  124.558
 16.5916  15622.4  124.516
 16.7896  15443.7  123.859
 16.9876  15379.1  125.053
 17.1856  15442.1  123.72
 17.3836  14350.1  119.155
 17.5816  14487.6  120.205
 17.7796  14573.2  120.493
 17.9776  14554  121.168
 18.1756  15961.4  125.568
 18.3736  15571.6  124.558
 18.5716  13919.5  117.508
 18.7696  13928.7  117.126
 18.9676  13453.2  114.922
 19.1656  13369  115.102
 19.3636  13423.7  115.552
 19.5616  13315.5  115.241
 19.7596  13313.3  114.651
 19.9576  13950  117.412
 20.1556  13131.7  114.423
 20.3536  12848.5  112.581
 20.5516  12797.6  112.787
 20.7496  12435.2  111.038
 20.9476  13002.9  113.387
 21.1456  13091.5  114.102
 21.3436  12292.7  110.518
 21.5416  12406  111.029
 21.7396  12111.8  109.553
 21.9376  12237.3  109.887
 22.1356  12503.4  111.227
 22.3336  12409  111.051
 22.5316  12309.8  110.709
 22.7296  12068.5  108.993
 22.9276  11850.7  108.67
 23.1256  12619.3  111.602
 23.3236  11786.3  108.395
 23.5216  11926.3  108.692
 23.7196  11884.4  108.655
 23.9176  11809.2  107.874
 24.1156  11642.7  107.565
 24.3136  11450.9  107.485
 24.5116  11490.5  107.206
 24.7096  11412  106.658
 24.9076  11047.8  104.961
 25.1056  11053.6  105.185
 25.3036  10683.3  103.185
 25.5016  10828.9  103.912
 25.6996  10693.6  102.844
 25.8976  10750.5  103.557
 26.0956  10874.4  104.161
 26.2936  10702.9  103.003
 26.4916  10656.9  102.653
 26.6896  10355.1  101.48
 26.8876  10098.7  100.073
 27.0856  10178  100.489
 27.2836  10095.1  100.152
 27.4816  10227.5  100.588
 27.6796  9876.25  99.2165
 27.8776  10182.7  100.6
 28.0756  9890.04  99.4261
 28.2736  9960.92  99.3685
 28.4716  9665.56  97.933
 28.6696  9662.71  97.7664
 28.8676  9496.95  97.2671
 29.0656  9389.64  96.6945
 29.2636  9345.56  96.1806
 29.4616  9362.47  96.5309
 29.6596  9273.67  95.6477
 29.8576  9217  96.0286
 30.0556  9397.52  96.8239
 30.2536  9342.5  96.3541
 30.4516  9214.5  95.337
 30.6496  9267.79  95.3394
 30.8476  8931.07  94.0235
 31.0456  9009.32  94.3959
 31.2436  9005.9  93.6621
 31.4416  8839.66  92.9917
 31.6396  9258.29  95.2184
 31.8376  9022.46  93.5486
 32.0356  8858.97  93.249
 32.2336  8712.08  91.8749
 32.4316  8796.52  92.7176
 32.6296  8672.69  91.8293
 32.8276  8688.73  91.7633
 33.0256  8592.26  91.3183
 33.2236  8562.3  91.3026
 33.4216  8661.51  91.5238
 33.6196  8489.96  90.9116
 33.8176  8564.58  91.467
 34.0156  8382.15  90.1111
 34.2136  8331.87  89.8755
 34.4116  8340.82  90.0759
 34.6096  8416.08  90.3522
 34.8076  8288.05  90.0715
 35.0056  8320.39  89.9363
 35.2036  8336.59  90.2324
 35.4016  8191.04  89.3679
 35.5996  8168.35  89.2786
 35.7976  8033.36  88.8065
 35.9956  8197.89  89.3613
 36.1936  8113.69  88.778
 36.3916  7984.57  88.2378
 36.5896  8288.13  91.3364
 36.7876  8080.24  89.1372
 36.9856  7972.55  88.5705
 37.1836  7923.61  87.4156
 37.3816  8003.38  88.2029
 37.5796  7840.47  88.9988
 37.7776  7871.88  87.5655
 37.9756  7815.96  87.14
 38.1736  8087.78  88.8308
 38.3716  7960.24  88.4044
 38.5696  7666.03  87.1327
 38.7676  7536.33  85.9275
 38.9656  7640.1  86.1603
 39.1636  7586.57  86.0872
 39.3616  7784.27  87.1662
 39.5596  7540.45  86.6046
 39.7576  7578.8  86.2065
 39.9556  7611.31  86.0433
 40.1536  7779.93  87.1837
 40.3516  7721.44  86.9548
 40.5496  7744.38  87.0532
 40.7476  7757.22  87.3359
 40.9456  7725.84  86.9068
 41.1436  7727.06  86.6424
 41.3416  7707.53  86.8636
 41.5396  7638.66  86.2858
 41.7376  7742.18  87.1279
 41.9356  7621.89  86.3127
 42.1336  7636.07  86.5355
 42.3316  7607.89  86.5702
 42.5296  7534.07  85.6788
 42.7276  7620.9  86.4073
 42.9256  7481.61  85.4894
 43.1236  7533.01  85.8882
 43.3216  7555.68  85.8736
 43.5196  7398.95  84.9413
 43.7176  7429.6  85.501
 43.9156  7404.45  85.2714
 44.1136  7292.24  84.1844
 44.3116  7320  84.3503
 44.5096  7295.82  84.5214
 44.7076  7287.98  84.4075
 44.9056  7225.9  83.9011
 45.1036  7309.72  84.0208
 45.3016  7154.77  83.6125
 45.4996  7187.88  83.7471
 45.6976  7013.89  82.8932
 45.8956  7189.39  83.7748
 46.0936  7216.16  83.693
 46.2916  7142.21  83.474
 46.4896  7140.55  83.5085
 46.6876  7017.39  83.4702
 46.8856  6896.93  82.1347
 47.0836  6947.91  82.5733
 47.2816  6782.98  81.4715
 47.4796  6850.92  81.98
 47.6776  6795.25  82.5571
 47.8756  6827.77  81.9584
 48.0736  6894.07  82.7815
 48.2716  6688.02  81.3768
 48.4696  6832.13  81.8479
 48.6676  6851.53  82.5366
 48.8656  6809.87  82.0245
 49.0636  6787.21  81.8323
 49.2616  6582.09  80.6252
 49.4596  6712.04  80.9863
 49.6576  6628.9  80.7109
 49.8556  6633.82  80.7547
 50.0536  6596.49  80.961
 50.2516  6515.99  80.5686
 50.4496  6498.5  80.1599
 50.6476  6518.03  79.967
 50.8456  6548.76  80.2413
 51.0436  6401.95  79.7657
 51.2416  6461.49  79.8034
 51.4396  6237.55  78.7993
 51.6376  6269.6  78.8454
 51.8356  6295.8  78.6545
 52.0336  6239.25  78.7692
 52.2316  6270.4  79.3064
 52.4296  6263.88  78.9577
 52.6276  6233.39  78.8773
 52.8256  6294.94  78.8364
 53.0236  6110.85  78.3241
 53.2216  6133.04  78.4821
 53.4196  6138.04  78.4588
 53.6176  6028.69  78.2193
 53.8156  5978.77  77.5792
 54.0136  6054.87  78.223
 54.2116  6036.21  77.7793
 54.4096  6153.26  78.5855
 54.6076  6023.64  78.0889
 54.8056  5974.37  77.5604
 55.0036  6001.98  77.9956
 55.2016  5952.84  77.2897
 55.3996  5967.45  77.425
 55.5976  5900.98  77.1734
 55.7956  5951.44  77.3235
 55.9936  5884.41  77.0174
 56.1916  6014.6  77.8881
 56.3896  5962.5  77.5405
 56.5876  5975.83  78.1682
 56.7856  5975.01  77.6537
 56.9836  5790.04  76.2215
 57.1816  5984.67  77.8723
 57.3796  5937.7  77.342
 57.5776  5982.88  77.5991
 57.7756  5867.43  77.4679
 57.9736  5836.32  76.9448
 58.1716  6020.4  78.3816
 58.3696  5890.24  77.2949
 58.5676  5922.96  76.9923
 58.7656  5940.13  77.7662
 58.9636  6024.61  78.3441
 59.1616  5881.53  77.5278
 59.3596  5968.87  77.354
 59.5576  5897.23  76.9458
 59.7556  5996.8  78.0093
 59.9536  5909.69  77.3407
 60.1516  5955.37  78.4816
 60.1996  0.0000000E+00  0.0000000E+00