Folder: echemistpy/docs/examples/XRD/IS17_D/Data/IS17_D (part 28)

File: 17_Db_f00080.xye
# /beamlines/bl04/projects/cycle2025-II/20250340211-lsimonelli/DATA/IS17_D/17_Db_f00080.xye : mythproc.py merge -s 0.006 -l 0.5 -f /beamlines/bl04/inhouse/ff/FlatField/ff_20Nov2024rod8mm60s_17keV.raw -b True -c true -o xye /beamlines/bl04/projects/cycle2025-II/20250340211-lsimonelli/DATA/IS17_D/17_Db_00080.dat
# IsMon = [6785835, 6789266, 6784189]  IsPos = [-1.4999, -2.4884, -3.4988]
# Wave = 0.4962  CalPath /beamlines/bl04/projects/cycle2025-II/20250340211-lsimonelli/DATA/Align/Si_Pos1_25keV_f00001.cal
# Date = 2025-09-24_15:59:32 Dt = 4.8000  Bin = 0.0060  <imon> = 6786430 +/- 2115 (Min/Max) 6784189 / 6789266
# icurr 252.7717  mocoIn 1.7236E-05  mocoOut 0.8085  i15 7.10539e+06  imon 6.78643e+06  i7 5.0000  iEMpd_timer 4.8000  iEMpd_1 3.1962E-08  iEMpd_2 7.8511E-08  iEMpd_3 1.6440E-08  iEMpd_4 4.7916E-08  iEMhp_timer 4.8000  iEMhp_1 4.9354E-06  iEMhp_2 -2.4180E-08  iEMhp_3 -2.3993E-08  iEMhp_4 -2.0267E-08
#      9776
 1.7416  69867  264.411
 1.9396  47801.9  218.994
 2.1376  35186.4  187.88
 2.3356  31490.2  177.365
 2.5336  30232.8  174.4
 2.7316  27069.6  165.122
 2.9296  25565.8  160.627
 3.1276  25116.8  158.755
 3.3256  24487  156.401
 3.5236  25988.1  160.925
 3.7216  23805.5  155.284
 3.9196  23548.5  153.645
 4.1176  23239.8  152.433
 4.3156  24329.1  156.14
 4.5136  27157.1  163.915
 4.7116  27902.7  167.302
 4.9096  27031  164.096
 5.1076  26896.6  164.278
 5.3056  26823.7  163.787
 5.5036  26621.2  163.055
 5.7016  27058.2  164.36
 5.8996  27732.4  165.623
 6.0976  28489.9  169.281
 6.2956  28510.8  168.694
 6.4936  29145.1  169.758
 6.6916  29625.3  172.14
 6.8896  30414.3  174.266
 7.0876  31440.6  177.928
 7.2856  31162.4  176.187
 7.4836  31816.4  177.376
 7.6816  32486.8  179.739
 7.8796  33438.7  182.364
 8.0776  36006.8  190.243
 8.2756  37019.3  191.524
 8.4736  37118.6  191.577
 8.6716  36614.8  190.885
 8.8696  37720.2  194.284
 9.0676  36724.2  191.031
 9.2656  35208  187.739
 9.4636  34315  183.807
 9.6616  33566.4  182.514
 9.8596  33077.2  180.595
 10.0576  31143.9  175.9
 10.2556  30209.3  173.694
 10.4536  32143.8  178.755
 10.6516  32867.8  180.974
 10.8496  27697.5  165.562
 11.0476  26996.2  163.456
 11.2456  28447.2  168.349
 11.4436  26700  162.271
 11.6416  25730.1  159.634
 11.8396  24796.1  156.92
 12.0376  24264.3  154.874
 12.2356  24984  157.56
 12.4336  24160.1  154.492
 12.6316  23677.9  153.211
 12.8296  23942.1  153.672
 13.0276  24166.6  154.6
 13.2256  24305.7  155.407
 13.4236  24278.6  155.089
 13.6216  24492.6  155.773
 13.8196  27057.1  163.186
 14.0176  23621.6  153.051
 14.2156  23306.7  151.062
 14.4136  22251  148.983
 14.6116  21841.4  146.795
 14.8096  20973.3  143.847
 15.0076  20295.2  145.374
 15.2056  19338.8  137.74
 15.4036  18485  135.491
 15.6016  18047.1  132.969
 15.7996  17729.1  132.068
 15.9976  17251.9  133.157
 16.1956  17104.1  130.485
 16.3936  16741.1  128.27
 16.5916  16582.4  128.31
 16.7896  16353.5  127.481
 16.9876  16203.7  128.334
 17.1856  16134.3  126.422
 17.3836  15496.7  123.81
 17.5816  15424.4  123.998
 17.7796  15212.9  123.075
 17.9776  15307.1  124.264
 18.1756  15393.5  123.331
 18.3736  15594.5  124.62
 18.5716  14621.4  120.434
 18.7696  14407.6  119.112
 18.9676  14262.8  118.31
 19.1656  13883.8  117.32
 19.3636  14034  118.137
 19.5616  13907.3  117.771
 19.7596  14092.6  117.96
 19.9576  14525.2  119.805
 20.1556  13725  116.968
 20.3536  13492  115.359
 20.5516  13446.4  115.604
 20.7496  13110.6  114.095
 20.9476  13264.7  114.522
 21.1456  13379.9  115.349
 21.3436  12876.6  113.107
 21.5416  12822.5  112.883
 21.7396  12526.2  111.415
 21.9376  12647.5  111.731
 22.1356  12756.1  112.318
 22.3336  12396.8  111.009
 22.5316  12487.6  111.514
 22.7296  12305.2  110.07
 22.9276  12283.8  110.636
 23.1256  12528.9  111.222
 23.3236  12667.3  112.409
 23.5216  12562.4  111.578
 23.7196  12500.9  111.258
 23.9176  12534.7  111.161
 24.1156  12143.3  109.859
 24.3136  11968.5  109.85
 24.5116  12103.9  109.998
 24.7096  11876  108.769
 24.9076  11565.5  107.371
 25.1056  11255.5  106.381
 25.3036  11142.8  105.361
 25.5016  11134.4  105.364
 25.6996  11067.8  104.632
 25.8976  11207.8  105.731
 26.0956  10966.7  104.603
 26.2936  10881.7  103.845
 26.4916  11125.5  104.856
 26.6896  10843.5  103.835
 26.8876  10630.6  102.672
 27.0856  10514.3  102.166
 27.2836  10436.7  101.674
 27.4816  10363.9  101.256
 27.6796  10154  100.576
 27.8776  10594.7  102.606
 28.0756  10170.7  100.823
 28.2736  10195.7  100.529
 28.4716  9918.48  99.2035
 28.6696  9956.79  99.2374
 28.8676  9832.15  98.9713
 29.0656  9709.36  98.3239
 29.2636  9733.94  98.2402
 29.4616  9477.84  97.1229
 29.6596  9427.11  96.4342
 29.8576  9321.57  96.5694
 30.0556  9278.65  96.2318
 30.2536  9420.01  96.7505
 30.4516  9759.73  98.1227
 30.6496  9624.95  97.177
 30.8476  9529.49  97.1412
 31.0456  9577.57  97.3495
 31.2436  9554.57  96.4888
 31.4416  9298.58  95.3552
 31.6396  9586.8  96.8689
 31.8376  9475.97  95.7999
 32.0356  9356.23  95.7815
 32.2336  9277.4  94.7955
 32.4316  8982.93  93.6774
 32.6296  8920.2  93.1881
 32.8276  9069.16  93.7513
 33.0256  8868.25  92.7693
 33.2236  8982.8  93.5132
 33.4216  8914.9  92.8475
 33.6196  8830.49  92.6927
 33.8176  8810.43  92.7542
 34.0156  8740.88  92.0208
 34.2136  8798.8  92.3577
 34.4116  8540.8  91.1509
 34.6096  8644.65  91.5816
 34.8076  8417.49  90.7846
 35.0056  8539.06  91.0983
 35.2036  8731.18  92.3543
 35.4016  8441.33  90.7183
 35.5996  8385.16  90.4501
 35.7976  8403.55  90.8286
 35.9956  8517.21  91.0787
 36.1936  8483.79  90.7657
 36.3916  8340.24  90.1792
 36.5896  8362.64  91.2903
 36.7876  8080.99  89.1364
 36.9856  8132.77  89.4494
 37.1836  7916.15  87.3713
 37.3816  8019.33  88.3064
 37.5796  8136.17  90.6649
 37.7776  8131.28  89.014
 37.9756  8335.59  89.995
 38.1736  8365.02  90.3656
 38.3716  8148.19  89.4611
 38.5696  8055.3  89.314
 38.7676  7991.47  88.4633
 38.9656  7925.02  87.7229
 39.1636  8083.46  88.8681
 39.3616  8035.1  88.5342
 39.5596  7813.96  88.1401
 39.7576  7814.2  87.542
 39.9556  8018.61  88.3091
 40.1536  8006.85  88.4538
 40.3516  8005.15  88.4518
 40.5496  7981.28  88.5715
 40.7476  7965.91  88.4987
 40.9456  8055.38  88.7443
 41.1436  8025.41  88.2983
 41.3416  7905.98  87.9719
 41.5396  7928.06  87.9067
 41.7376  7951.39  88.2955
 41.9356  7887.13  87.7934
 42.1336  8108.21  89.1596
 42.3316  7791.24  87.6044
 42.5296  7907.91  87.7802
 42.7276  7929.15  88.1344
 42.9256  7862.2  87.6343
 43.1236  7903.7  87.9708
 43.3216  7982.88  88.1593
 43.5196  7802.45  87.2076
 43.7176  7745.44  87.2958
 43.9156  7610.84  86.4481
 44.1136  7500.75  85.3773
 44.3116  7582.21  85.8592
 44.5096  7547.62  85.9655
 44.7076  7616.93  86.2864
 44.9056  7831.18  87.3641
 45.1036  7736.34  86.4574
 45.3016  7594.41  86.1587
 45.4996  7648.19  86.4093
 45.6976  7423.94  85.3123
 45.8956  7533.75  85.7364
 46.0936  7701.77  86.6957
 46.2916  7586.89  86.0153
 46.4896  7494.47  85.5158
 46.6876  7452.28  85.9953
 46.8856  7439.49  85.1913
 47.0836  7437.25  85.4282
 47.2816  7344.87  84.7701
 47.4796  7379.21  85.0794
 47.6776  7339.34  85.8084
 47.8756  7458.12  85.648
 48.0736  7451.58  86.0793
 48.2716  7360.74  85.3696
 48.4696  7381.91  85.076
 48.6676  7381.73  85.6751
 48.8656  7316.28  85.0205
 49.0636  7443.04  85.6929
 49.2616  7291.11  84.8567
 49.4596  7296.92  84.4461
 49.6576  7258.04  84.4511
 49.8556  7307.09  84.7551
 50.0536  7283.02  85.0716
 50.2516  7323.29  85.4454
 50.4496  7212.16  84.4369
 50.6476  7318.21  84.727
 50.8456  7262.09  84.482
 51.0436  7099.58  83.995
 51.2416  6998.34  83.072
 51.4396  6830.21  82.4649
 51.6376  7087.97  83.8175
 51.8356  7068.79  83.3236
 52.0336  6939.19  83.0862
 52.2316  7050.89  84.1131
 52.4296  6951.44  83.2215
 52.6276  6966.71  83.414
 52.8256  7028.01  83.3386
 53.0236  7066.24  84.1982
 53.2216  7007.04  83.8843
 53.4196  6860.82  82.9205
 53.6176  6960.54  84.0178
 53.8156  6854.98  83.0445
 54.0136  6654.72  82.0079
 54.2116  6787.94  82.4546
 54.4096  6600.27  81.3666
 54.6076  6575.8  81.5745
 54.8056  6471.54  80.6946
 55.0036  6564.3  81.6856
 55.2016  6644.24  81.6806
 55.3996  6396.66  80.1422
 55.5976  6432.13  80.5621
 55.7956  6395.01  80.1374
 55.9936  6552.63  81.2431
 56.1916  6360.89  80.0857
 56.3896  6292  79.6214
 56.5876  6309.14  80.2952
 56.7856  6288.7  79.6539
 56.9836  6384.2  80.0397
 57.1816  6472.43  80.9302
 57.3796  6272.09  79.5026
 57.5776  6276.61  79.4236
 57.7756  6093.1  78.9123
 57.9736  6162.21  79.0231
 58.1716  6106.57  78.9438
 58.3696  5965.25  77.7739
 58.5676  5982.85  77.357
 58.7656  6026.42  78.3266
 58.9636  5928.35  77.7094
 59.1616  5925.24  77.8253
 59.3596  6078.39  78.0992
 59.5576  5977.52  77.5046
 59.7556  6014.32  78.1603
 59.9536  5907.41  77.3625
 60.1516  5892.4  78.1027
 60.1996  0.0000000E+00  0.0000000E+00

File: 17_Db_f00090.xye
# /beamlines/bl04/projects/cycle2025-II/20250340211-lsimonelli/DATA/IS17_D/17_Db_f00090.xye : mythproc.py merge -s 0.006 -l 0.5 -f /beamlines/bl04/inhouse/ff/FlatField/ff_20Nov2024rod8mm60s_17keV.raw -b True -c true -o xye /beamlines/bl04/projects/cycle2025-II/20250340211-lsimonelli/DATA/IS17_D/17_Db_00090.dat
# IsMon = [6768096, 6767063, 6768323]  IsPos = [-1.5000, -2.4884, -3.4988]
# Wave = 0.4962  CalPath /beamlines/bl04/projects/cycle2025-II/20250340211-lsimonelli/DATA/Align/Si_Pos1_25keV_f00001.cal
# Date = 2025-09-24_18:45:21 Dt = 4.8000  Bin = 0.0060  <imon> = 6767827 +/- 548 (Min/Max) 6767063 / 6768323
# icurr 251.3683  mocoIn 1.7145E-05  mocoOut 0.8049  i15 7.09227e+06  imon 6.76783e+06  i7 5.6667  iEMpd_timer 4.8000  iEMpd_1 3.4393E-08  iEMpd_2 7.8791E-08  iEMpd_3 1.5606E-08  iEMpd_4 4.7360E-08  iEMhp_timer 4.8000  iEMhp_1 4.9097E-06  iEMhp_2 -2.5389E-08  iEMhp_3 -2.2750E-08  iEMhp_4 -2.1096E-08
#      9776
 1.7416  70344.8  265.297
 1.9396  48122.5  219.708
 2.1376  35581.1  188.92
 2.3356  31761.5  178.116
 2.5336  29479.4  172.202
 2.7316  27022  164.993
 2.9296  25839  161.494
 3.1276  25434.1  159.762
 3.3256  24629.4  156.881
 3.5236  26199  161.601
 3.7216  23993  155.903
 3.9196  23628.1  153.902
 4.1176  23512  153.318
 4.3156  24432.1  156.463
 4.5136  26882.5  163.091
 4.7116  28098.6  167.884
 4.9096  27277.4  164.848
 5.1076  27101.1  164.891
 5.3056  26969.6  164.206
 5.5036  27163.4  164.717
 5.7016  27455.9  165.564
 5.8996  28028.8  166.507
 6.0976  28854.5  170.35
 6.2956  28707  169.273
 6.4936  29540.7  170.911
 6.6916  29792.7  172.622
 6.8896  30461.9  174.403
 7.0876  31848.9  178.991
 7.2856  31295.1  176.562
 7.4836  31606.2  176.783
 7.6816  32469.2  179.691
 7.8796  33169.8  181.648
 8.0776  34755.8  186.914
 8.2756  36320.8  189.7
 8.4736  36657.2  190.389
 8.6716  36390.1  190.316
 8.8696  36946.2  192.255
 9.0676  35917.2  188.885
 9.2656  34928.3  186.959
 9.4636  34104  183.21
 9.6616  33443.7  182.159
 9.8596  32841  179.953
 10.0576  30508.6  174.118
 10.2556  30098.8  173.386
 10.4536  29391.9  170.946
 10.6516  28521.5  168.6
 10.8496  27491.8  164.933
 11.0476  26846.7  163.009
 11.2456  25929.8  160.735
 11.4436  26405.6  161.368
 11.6416  25852.3  160.014
 11.8396  24506.3  155.984
 12.0376  24085.8  154.295
 12.2356  23622.5  153.218
 12.4336  23568.7  152.589
 12.6316  23766.2  153.489
 12.8296  23555.6  152.429
 13.0276  24065.1  154.272
 13.2256  24277.8  155.32
 13.4236  24043.6  154.341
 13.6216  24509.8  155.817
 13.8196  26287.2  160.834
 14.0176  23621.8  153.055
 14.2156  23251.2  150.888
 14.4136  22062.5  148.352
 14.6116  21752.2  146.498
 14.8096  20970.9  143.83
 15.0076  20119.8  144.753
 15.2056  19231.6  137.364
 15.4036  18252.2  134.639
 15.6016  17884.4  132.372
 15.7996  17329.2  130.572
 15.9976  17205.9  132.989
 16.1956  16850.7  129.489
 16.3936  16475.5  127.235
 16.5916  16221.4  126.888
 16.7896  16222.1  126.942
 16.9876  16082.3  127.849
 17.1856  15818.1  125.195
 17.3836  15603.9  124.25
 17.5816  15045  122.474
 17.7796  15011.1  122.268
 17.9776  14659.9  121.602
 18.1756  14882.9  121.27
 18.3736  14605.8  120.613
 18.5716  14445.1  119.706
 18.7696  14475  119.397
 18.9676  14202.6  118.062
 19.1656  13784.3  116.894
 19.3636  13892.2  117.547
 19.5616  13624.4  116.573
 19.7596  14045.6  117.761
 19.9576  14265.9  118.721
 20.1556  13912.5  117.763
 20.3536  13498.4  115.395
 20.5516  13157.6  114.358
 20.7496  13109.2  113.994
 20.9476  13000.6  113.374
 21.1456  12991.7  113.664
 21.3436  12819.9  112.854
 21.5416  12684  112.273
 21.7396  12557.6  111.551
 21.9376  12493.1  111.04
 22.1356  12584.8  111.717
 22.3336  12228.9  110.267
 22.5316  12277.4  110.576
 22.7296  12453  110.734
 22.9276  12155.6  110.06
 23.1256  12429.6  110.77
 23.3236  12537.1  111.817
 23.5216  12343.6  110.589
 23.7196  12437.5  111.179
 23.9176  12421.2  110.641
 24.1156  12248.7  110.332
 24.3136  11806  109.123
 24.5116  11948.4  109.284
 24.7096  11702.6  107.984
 24.9076  11350.7  106.375
 25.1056  11102.5  105.656
 25.3036  11010.5  104.745
 25.5016  10878.1  104.145
 25.6996  10870.4  103.7
 25.8976  10891  104.218
 26.0956  10754.6  103.579
 26.2936  10832.5  103.62
 26.4916  10988.3  104.233
 26.6896  10626.1  102.787
 26.8876  10594.2  102.483
 27.0856  10317.6  101.201
 27.2836  10223.1  100.631
 27.4816  10148.7  100.2
 27.6796  10153.8  100.587
 27.8776  10367.9  101.5
 28.0756  9974.86  99.8514
 28.2736  9974.19  99.4272
 28.4716  9788.24  98.5522
 28.6696  9780.69  98.3528
 28.8676  9651.39  98.052
 29.0656  9587.75  97.7033
 29.2636  9650.54  97.8156
 29.4616  9295.15  96.1858
 29.6596  9392.87  96.2609
 29.8576  9160.83  95.7367
 30.0556  9208.03  95.8578
 30.2536  9353.96  96.415
 30.4516  9412.99  96.356
 30.6496  9472.42  96.3788
 30.8476  9352.21  96.2207
 31.0456  9383.39  96.342
 31.2436  9415.86  95.7655
 31.4416  9112.41  94.3946
 31.6396  9373.17  95.7941
 31.8376  9229.88  94.5847
 32.0356  9148.9  94.7297
 32.2336  9205.84  94.4322
 32.4316  8845.85  92.9695
 32.6296  8818.43  92.6533
 32.8276  8831.97  92.5149
 33.0256  8852.79  92.6936
 33.2236  8824.19  92.6865
 33.4216  8813.74  92.321
 33.6196  8712.2  92.0777
 33.8176  8725.43  92.3054
 34.0156  8696.52  91.7823
 34.2136  8660.16  91.6181
 34.4116  8378.05  90.2813
 34.6096  8445.82  90.5233
 34.8076  8426.04  90.8303
 35.0056  8596.94  91.4103
 35.2036  8602.17  91.6666
 35.4016  8222.47  89.536
 35.5996  8257.14  89.7547
 35.7976  8364.4  90.6085
 35.9956  8462.33  90.785
 36.1936  8313.87  89.8444
 36.3916  8191.91  89.3801
 36.5896  8136.93  90.0491
 36.7876  7960.49  88.4761
 36.9856  7805.53  87.6372
 37.1836  7935.81  87.4823
 37.3816  8010.04  88.2483
 37.5796  8041.85  90.1377
 37.7776  8052.08  88.5708
 37.9756  8043.56  88.4077
 38.1736  8080.65  88.8007
 38.3716  7907.4  88.1142
 38.5696  7826.95  88.0398
 38.7676  7940.03  88.1872
 38.9656  7924.61  87.7206
 39.1636  7924.79  87.9943
 39.3616  7855.49  87.5534
 39.5596  7657.65  87.2642
 39.7576  7721.58  87.0216
 39.9556  7844.28  87.3524
 40.1536  7974.6  88.2739
 40.3516  7905.59  87.9009
 40.5496  7892.05  88.0793
 40.7476  7913.31  88.2036
 40.9456  7945.29  88.1327
 41.1436  7950.26  87.8804
 41.3416  7730.73  86.9959
 41.5396  7745.79  86.8895
 41.7376  7723.77  87.0218
 41.9356  7714.12  86.8249
 42.1336  7985.01  88.4831
 42.3316  7732.29  87.2785
 42.5296  7774.44  87.0269
 42.7276  7792.65  87.3718
 42.9256  7660.01  86.4929
 43.1236  7663.72  86.6253
 43.3216  7799.88  87.1332
 43.5196  7565.55  85.8805
 43.7176  7561.2  86.2458
 43.9156  7499.89  85.8185
 44.1136  7492.26  85.329
 44.3116  7529.05  85.5558
 44.5096  7456.23  85.4463
 44.7076  7488.78  85.5615
 44.9056  7555.93  85.8074
 45.1036  7526.07  85.2551
 45.3016  7477.05  85.4878
 45.4996  7507.9  85.5997
 45.6976  7363.6  84.9506
 45.8956  7453.29  85.2826
 46.0936  7539.18  85.517
 46.2916  7451.04  85.2327
 46.4896  7539.93  85.7852
 46.6876  7304.62  85.1472
 46.8856  7349.11  84.6548
 47.0836  7415.73  85.3077
 47.2816  7290.55  84.4632
 47.4796  7368.73  85.0289
 47.6776  7240.58  85.234
 47.8756  7348.17  85.0187
 48.0736  7230.44  84.7871
 48.2716  7205.69  84.459
 48.4696  7384.72  85.0967
 48.6676  7319.81  85.3042
 48.8656  7327.65  85.078
 49.0636  7391.23  85.396
 49.2616  7187.93  84.2481
 49.4596  7293.96  84.4202
 49.6576  7197.38  84.0877
 49.8556  7177.07  83.9981
 50.0536  7223.5  84.7211
 50.2516  7265.98  85.1036
 50.4496  7172.58  84.2108
 50.6476  7193.1  84.0026
 50.8456  7122.72  83.6705
 51.0436  7054.6  83.7333
 51.2416  6928.5  82.6529
 51.4396  6736.16  81.8913
 51.6376  6827.41  82.2752
 51.8356  6879.69  82.2017
 52.0336  6959.36  83.1935
 52.2316  7012.79  83.8759
 52.4296  6884.48  82.8007
 52.6276  6838.82  82.642
 52.8256  6995.53  83.1339
 53.0236  6924.81  83.361
 53.2216  6770.47  82.4434
 53.4196  6952.38  83.4743
 53.6176  6903.89  83.6855
 53.8156  6900.46  83.3309
 54.0136  6510.03  81.1054
 54.2116  6714.6  81.9994
 54.4096  6619.54  81.4987
 54.6076  6472.32  80.9188
 54.8056  6424.34  80.3979
 55.0036  6605.57  81.8017
 55.2016  6481.34  80.6078
 55.3996  6288.83  79.4498
 55.5976  6404.71  80.3772
 55.7956  6421.09  80.2731
 55.9936  6413.58  80.3737
 56.1916  6460.54  80.6949
 56.3896  6147.41  78.7
 56.5876  6210.33  79.6577
 56.7856  6215.85  79.2076
 56.9836  6348.69  79.7996
 57.1816  6350.73  80.1762
 57.3796  6076.32  78.2547
 57.5776  6168.3  78.7288
 57.7756  6104.08  78.9921
 57.9736  6080.94  78.5059
 58.1716  5974.08  78.0764
 58.3696  5881.23  77.2339
 58.5676  5891.75  76.7835
 58.7656  5912.55  77.5853
 58.9636  5880.91  77.405
 59.1616  5875.15  77.4959
 59.3596  5811.79  76.3519
 59.5576  5877.56  76.8384
 59.7556  5868.12  77.1889
 59.9536  6128.15  78.7787
 60.1516  5959.59  78.5309
 60.1996  0.0000000E+00  0.0000000E+00