Folder: echemistpy/docs/examples/XRD/IS17_D/Data/IS17_D (part 8)

File: 17_Da_f00042.xye
# /beamlines/bl04/projects/cycle2025-II/20250340211-lsimonelli/DATA/IS17_D/17_Da_f00042.xye : mythproc.py merge -s 0.006 -l 0.5 -f /beamlines/bl04/inhouse/ff/FlatField/ff_20Nov2024rod8mm60s_17keV.raw -b True -c true -o xye /beamlines/bl04/projects/cycle2025-II/20250340211-lsimonelli/DATA/IS17_D/17_Da_00042.dat
# IsMon = [6746201, 6748987, 6750049]  IsPos = [-1.4999, -2.4885, -3.4986]
# Wave = 0.4962  CalPath /beamlines/bl04/projects/cycle2025-II/20250340211-lsimonelli/DATA/Align/Si_Pos1_25keV_f00001.cal
# Date = 2025-09-24_05:14:48 Dt = 4.8000  Bin = 0.0060  <imon> = 6748412 +/- 1623 (Min/Max) 6746201 / 6750049
# icurr 249.1162  mocoIn 1.7002E-05  mocoOut 0.7980  i15 7.06727e+06  imon 6.74841e+06  i7 5.0000  iEMpd_timer 4.8000  iEMpd_1 3.4828E-08  iEMpd_2 7.7808E-08  iEMpd_3 1.6733E-08  iEMpd_4 4.8407E-08  iEMhp_timer 4.8000  iEMhp_1 4.8701E-06  iEMhp_2 -2.6017E-08  iEMhp_3 -2.4606E-08  iEMhp_4 -2.1577E-08
#      9776
 1.7416  70816.6  266.234
 1.9396  46408  215.799
 2.1376  33265.2  182.702
 2.3356  29693.2  172.251
 2.5336  27760  167.136
 2.7316  26268.4  162.675
 2.9296  24941.9  158.685
 3.1276  24310.1  156.216
 3.3256  24042.9  155.009
 3.5236  25715.7  160.271
 3.7216  23258.4  153.504
 3.9196  23059.6  152.081
 4.1176  22713.1  150.703
 4.3156  23978.6  155.001
 4.5136  26283.7  161.265
 4.7116  27368.2  165.699
 4.9096  26844.8  163.541
 5.1076  26071.8  161.747
 5.3056  26697.8  163.296
 5.5036  26146.7  161.615
 5.7016  26682  163.218
 5.8996  27089  163.677
 6.0976  27751.3  167.1
 6.2956  28291.9  168.048
 6.4936  29130.5  169.719
 6.6916  29324  171.276
 6.8896  30156  173.547
 7.0876  31307.2  177.554
 7.2856  31105.6  176.045
 7.4836  31538  176.606
 7.6816  32303.6  179.267
 7.8796  33682.7  183.03
 8.0776  35072.5  187.745
 8.2756  36927.1  191.253
 8.4736  37233.4  191.857
 8.6716  36425.8  190.397
 8.8696  36356.1  190.702
 9.0676  35537.6  187.909
 9.2656  34678.9  186.305
 9.4636  34043.3  183.009
 9.6616  33409.9  182.072
 9.8596  31969.1  177.585
 10.0576  30192.1  173.222
 10.2556  29067.4  170.406
 10.4536  28128.1  167.24
 10.6516  27080  164.279
 10.8496  26385.3  161.583
 11.0476  25803.4  159.767
 11.2456  25274.5  158.69
 11.4436  24996.8  157.005
 11.6416  26486.7  161.985
 11.8396  24166.7  154.931
 12.0376  23992  153.985
 12.2356  23449  152.682
 12.4336  23555.3  152.543
 12.6316  23122.9  151.404
 12.8296  23397.5  151.945
 13.0276  24018.8  154.123
 13.2256  24185.3  155.019
 13.4236  24121.2  154.587
 13.6216  23880.2  153.832
 13.8196  23909.2  153.694
 14.0176  23502  152.66
 14.2156  22849.2  149.582
 14.4136  21946.5  147.961
 14.6116  21832.2  146.785
 14.8096  21066.9  144.172
 15.0076  19808.7  143.57
 15.2056  19567.1  138.544
 15.4036  18547.8  135.7
 15.6016  18107.6  133.182
 15.7996  17778.4  132.242
 15.9976  17048.9  132.421
 16.1956  16511.8  128.218
 16.3936  16358.1  126.804
 16.5916  15781.3  125.168
 16.7896  15910  125.735
 16.9876  15902.3  127.158
 17.1856  15698.5  124.717
 17.3836  15117.1  122.296
 17.5816  14822.5  121.579
 17.7796  14504.9  120.201
 17.9776  14196.1  119.68
 18.1756  14187.5  118.386
 18.3736  13948.3  117.872
 18.5716  13751.4  116.794
 18.7696  13932.3  117.141
 18.9676  13538  115.288
 19.1656  13549.9  115.883
 19.3636  13467  115.725
 19.5616  13436.2  115.758
 19.7596  13446.3  115.217
 19.9576  13610  115.971
 20.1556  14345.4  119.59
 20.3536  13998.7  117.512
 20.5516  13287.1  114.93
 20.7496  12937.3  113.345
 20.9476  12668.8  111.922
 21.1456  12798.3  112.815
 21.3436  12567.2  111.747
 21.5416  12510.2  111.492
 21.7396  12302.1  110.407
 21.9376  12380.1  110.531
 22.1356  12470.6  110.934
 22.3336  12428.6  111.129
 22.5316  12428.8  111.235
 22.7296  12441.9  110.657
 22.9276  12273.2  110.58
 23.1256  12484.7  111.007
 23.3236  12421.2  111.29
 23.5216  12333.9  110.556
 23.7196  12278.8  110.247
 23.9176  12219.4  109.749
 24.1156  11961.8  109.048
 24.3136  11511.6  107.759
 24.5116  11540.4  107.428
 24.7096  11389.1  106.541
 24.9076  11041.6  104.931
 25.1056  11159.3  105.67
 25.3036  10874.5  104.093
 25.5016  10811.7  103.825
 25.6996  10787.8  103.301
 25.8976  10723.6  103.426
 26.0956  10680.2  103.231
 26.2936  10630.3  102.637
 26.4916  10680.6  102.763
 26.6896  10392.4  101.663
 26.8876  10452.9  101.814
 27.0856  10404.5  101.593
 27.2836  10181.5  100.585
 27.4816  10019.2  99.5576
 27.6796  9995.73  99.8136
 27.8776  9791.21  98.6529
 28.0756  9915.16  99.5469
 28.2736  9719.62  98.1579
 28.4716  9631.54  97.7584
 28.6696  9772.24  98.3212
 28.8676  9662.54  98.1082
 29.0656  9496.29  97.2402
 29.2636  9645.28  97.7188
 29.4616  9363.78  96.5316
 29.6596  9400.7  96.2936
 29.8576  9243.95  96.1608
 30.0556  9358.84  96.629
 30.2536  9311.1  96.1856
 30.4516  9238.52  95.4786
 30.6496  9166.89  94.8302
 30.8476  9090.78  94.8774
 31.0456  9138.48  95.0911
 31.2436  9114.08  94.2418
 31.4416  9039.86  94.0306
 31.6396  8938.29  93.5497
 31.8376  9162.24  94.2606
 32.0356  8826.56  93.0738
 32.2336  8852.08  92.6094
 32.4316  8769.97  92.5683
 32.6296  8846.8  92.7473
 32.8276  8832.18  92.5149
 33.0256  8780.22  92.3163
 33.2236  8669.97  91.8829
 33.4216  8723.02  91.8504
 33.6196  8712.76  92.0888
 33.8176  8682.18  92.0873
 34.0156  8589.29  91.2175
 34.2136  8557.56  91.0896
 34.4116  8430.25  90.5485
 34.6096  8375.5  90.1438
 34.8076  8421.06  90.789
 35.0056  8304  89.8521
 35.2036  8407.27  90.6143
 35.4016  8401.61  90.5103
 35.5996  8242.17  89.6785
 35.7976  8170.05  89.5565
 35.9956  8290.67  89.8697
 36.1936  8115.46  88.7819
 36.3916  8134.67  89.0582
 36.5896  8111.43  90.3567
 36.7876  8135.89  89.4378
 36.9856  7976.52  88.5849
 37.1836  8074.14  88.2344
 37.3816  8002.57  88.1987
 37.5796  7958.88  89.6726
 37.7776  7818.7  87.284
 37.9756  7847.12  87.3243
 38.1736  8055.45  88.6725
 38.3716  7983.5  88.5495
 38.5696  7801.56  87.9052
 38.7676  7695.48  86.8215
 38.9656  7720.67  86.6033
 39.1636  7724.54  86.8591
 39.3616  7753.6  86.9825
 39.5596  7589.57  86.8818
 39.7576  7661.9  86.6724
 39.9556  7667.1  86.3553
 40.1536  7768.11  87.1244
 40.3516  7843.05  87.629
 40.5496  7685.83  86.717
 40.7476  7867.06  87.9461
 40.9456  7831.98  87.5001
 41.1436  7877.89  87.4899
 41.3416  7729.92  86.9868
 41.5396  7630.08  86.2372
 41.7376  7694.16  86.8645
 41.9356  7618.78  86.2964
 42.1336  7690.46  86.8489
 42.3316  7688.83  87.0317
 42.5296  7695.47  86.5943
 42.7276  7670.22  86.6887
 42.9256  7669.59  86.5545
 43.1236  7461.53  85.4799
 43.3216  7629.81  86.2934
 43.5196  7468.14  85.3371
 43.7176  7549.99  86.1916
 43.9156  7507.75  85.8559
 44.1136  7322.36  84.3509
 44.3116  7428.11  84.9669
 44.5096  7455.84  85.4352
 44.7076  7375.7  84.9061
 44.9056  7369.04  84.7438
 45.1036  7282.61  83.8781
 45.3016  7237.36  84.1063
 45.4996  7126.4  83.403
 45.6976  7057.32  83.1671
 45.8956  7128.44  83.4095
 46.0936  7266.64  84.2206
 46.2916  7133.09  83.4205
 46.4896  7212.91  83.9119
 46.6876  7068.98  83.7799
 46.8856  7057.41  83.0863
 47.0836  7037.46  83.1037
 47.2816  6923.78  82.3108
 47.4796  7000.29  82.869
 47.6776  6904.98  83.2276
 47.8756  6988.79  82.9171
 48.0736  6961.08  83.1829
 48.2716  6819.97  82.1722
 48.4696  6941.57  82.4915
 48.6676  6840.21  82.4775
 48.8656  6818.58  82.0783
 49.0636  6837.42  82.1431
 49.2616  6658.83  81.0898
 49.4596  6776.55  81.3786
 49.6576  6631.32  80.7229
 49.8556  6730.25  81.341
 50.0536  6588.6  80.9122
 50.2516  6719.62  81.8273
 50.4496  6596.31  80.7515
 50.6476  6671.23  80.901
 50.8456  6645.38  80.8299
 51.0436  6446.59  80.0368
 51.2416  6502.59  80.0608
 51.4396  6375.51  79.6644
 51.6376  6308.37  79.0728
 51.8356  6379.38  79.157
 52.0336  6314.51  79.2559
 52.2316  6372.79  79.9658
 52.4296  6372.26  79.6537
 52.6276  6350.85  79.6381
 52.8256  6312.23  78.961
 53.0236  6177.28  78.7424
 53.2216  6166.34  78.7033
 53.4196  6146.29  78.5015
 53.6176  6153.11  79.0147
 53.8156  6193.81  78.9441
 54.0136  6210.09  79.2245
 54.2116  6247.6  79.1316
 54.4096  6146.38  78.5369
 54.6076  6056.88  78.3019
 54.8056  6096.87  78.3507
 55.0036  6149.95  79.0782
 55.2016  6017.18  77.7777
 55.3996  6043.71  77.9157
 55.5976  6096.2  78.4389
 55.7956  6095.96  78.2623
 55.9936  6029.93  77.9712
 56.1916  6067.61  78.2212
 56.3896  6084.99  78.323
 56.5876  5998.16  78.3134
 56.7856  6033.67  78.0338
 56.9836  5966.43  77.3826
 57.1816  6014.27  78.0715
 57.3796  6037.59  77.9881
 57.5776  5979.26  77.5671
 57.7756  5929.39  77.8753
 57.9736  5950.11  77.6883
 58.1716  5904.07  77.6237
 58.3696  5949.44  77.6693
 58.5676  5987.53  77.3969
 58.7656  5977.38  78
 58.9636  6199.24  79.469
 59.1616  5916.29  77.7432
 59.3596  6115.78  78.3167
 59.5576  6125.36  78.4348
 59.7556  6090.63  78.6321
 59.9536  5987.93  77.8656
 60.1516  5978.86  78.6511
 60.1996  0.0000000E+00  0.0000000E+00

File: 17_Da_f00046.xye
# /beamlines/bl04/projects/cycle2025-II/20250340211-lsimonelli/DATA/IS17_D/17_Da_f00046.xye : mythproc.py merge -s 0.006 -l 0.5 -f /beamlines/bl04/inhouse/ff/FlatField/ff_20Nov2024rod8mm60s_17keV.raw -b True -c true -o xye /beamlines/bl04/projects/cycle2025-II/20250340211-lsimonelli/DATA/IS17_D/17_Da_00046.dat
# IsMon = [6786087, 6782672, 6782745]  IsPos = [-1.4999, -2.4884, -3.4988]
# Wave = 0.4962  CalPath /beamlines/bl04/projects/cycle2025-II/20250340211-lsimonelli/DATA/Align/Si_Pos1_25keV_f00001.cal
# Date = 2025-09-24_06:20:51 Dt = 4.8000  Bin = 0.0060  <imon> = 6783835 +/- 1593 (Min/Max) 6782672 / 6786087
# icurr 252.3046  mocoIn 1.7216E-05  mocoOut 0.8074  i15 7.09914e+06  imon 6.78383e+06  i7 4.3333  iEMpd_timer 4.8000  iEMpd_1 3.4564E-08  iEMpd_2 7.7583E-08  iEMpd_3 1.6722E-08  iEMpd_4 4.8084E-08  iEMhp_timer 4.8000  iEMhp_1 4.9292E-06  iEMhp_2 -2.4787E-08  iEMhp_3 -2.3253E-08  iEMhp_4 -2.1275E-08
#      9776
 1.7416  72007.8  268.375
 1.9396  47681.6  218.672
 2.1376  34465.4  185.907
 2.3356  31091.7  176.203
 2.5336  28945.1  170.61
 2.7316  27590.8  166.708
 2.9296  26187.8  162.585
 3.1276  25556.3  160.139
 3.3256  24960.7  157.937
 3.5236  26830.3  163.542
 3.7216  24591.9  157.838
 3.9196  23800.9  154.498
 4.1176  23736.5  154.049
 4.3156  25079.7  158.526
 4.5136  27384.5  164.614
 4.7116  28354.6  168.657
 4.9096  27650.1  165.979
 5.1076  27301.1  165.503
 5.3056  27450.6  165.695
 5.5036  27169  164.735
 5.7016  27627.9  166.085
 5.8996  28260.4  167.179
 6.0976  28953.3  170.663
 6.2956  29709.2  172.218
 6.4936  30261  172.983
 6.6916  31025.7  176.175
 6.8896  31549.8  177.511
 7.0876  32773.6  181.666
 7.2856  32557.3  180.107
 7.4836  32916.1  180.419
 7.6816  34062.2  184.077
 7.8796  35236.6  187.24
 8.0776  36977.4  192.809
 8.2756  38374.3  195.001
 8.4736  39188.5  196.859
 8.6716  38560.1  195.922
 8.8696  38354.7  195.86
 9.0676  37492.3  192.993
 9.2656  36652.2  191.523
 9.4636  35985.4  188.174
 9.6616  35357.6  187.304
 9.8596  33954.1  182.998
 10.0576  31986.1  178.298
 10.2556  30875.4  175.607
 10.4536  29497.2  171.244
 10.6516  28997.2  169.981
 10.8496  28182  166.992
 11.0476  27027  163.563
 11.2456  26778.9  163.345
 11.4436  26473.1  161.577
 11.6416  27944.7  166.377
 11.8396  25715.1  159.802
 12.0376  25366.6  158.363
 12.2356  24799.5  156.989
 12.4336  24789.2  156.493
 12.6316  24488.4  155.802
 12.8296  24783.8  156.382
 13.0276  25431.7  158.602
 13.2256  25584  159.439
 13.4236  25734.9  159.675
 13.6216  25334.2  158.437
 13.8196  25316.9  158.153
 14.0176  24876.1  157.068
 14.2156  24510.6  154.931
 14.4136  23193.4  152.103
 14.6116  22753.2  149.85
 14.8096  22318.8  148.4
 15.0076  21009.7  147.849
 15.2056  20714.9  142.573
 15.4036  19652.2  139.712
 15.6016  19398.2  137.869
 15.7996  18772  135.907
 15.9976  18088.2  136.399
 16.1956  17465.1  131.859
 16.3936  17064.3  129.504
 16.5916  16683.3  128.684
 16.7896  16762.4  129.053
 16.9876  16607.9  129.942
 17.1856  16519.8  127.939
 17.3836  16188.1  126.541
 17.5816  15734.6  125.251
 17.7796  15359.9  123.678
 17.9776  14902.5  122.619
 18.1756  15005.1  121.751
 18.3736  14753.4  121.236
 18.5716  14623.4  120.447
 18.7696  14615  119.975
 18.9676  14345.6  118.669
 19.1656  14284.2  118.984
 19.3636  14261.4  119.097
 19.5616  14011.5  118.215
 19.7596  14189  118.347
 19.9576  14302.9  118.89
 20.1556  14983.7  122.23
 20.3536  14895.5  121.218
 20.5516  14148  118.595
 20.7496  13611.4  116.264
 20.9476  13531.3  115.661
 21.1456  13556.3  116.113
 21.3436  13263.8  114.801
 21.5416  13339.6  115.131
 21.7396  13196.4  114.352
 21.9376  13134.4  113.843
 22.1356  13120.7  113.909
 22.3336  13075.5  114.024
 22.5316  13023.9  113.889
 22.7296  13249.3  114.207
 22.9276  12971.3  113.697
 23.1256  13168  114.016
 23.3236  12980.2  113.757
 23.5216  13086  113.867
 23.7196  12653  111.914
 23.9176  12934  112.893
 24.1156  12628.7  112.04
 24.3136  12212.3  110.979
 24.5116  12173  110.32
 24.7096  11854.8  108.686
 24.9076  11719.3  108.08
 25.1056  11346.2  106.821
 25.3036  11405.3  106.61
 25.5016  11396.4  106.603
 25.6996  11290  105.68
 25.8976  11271  106.023
 26.0956  11237.8  105.899
 26.2936  11132.8  105.042
 26.4916  11344.4  105.912
 26.6896  10907.6  104.153
 26.8876  10867.6  103.804
 27.0856  10930.7  104.166
 27.2836  10729.5  103.097
 27.4816  10503.9  101.941
 27.6796  10461.1  102.109
 27.8776  10410.5  101.717
 28.0756  10445.8  102.187
 28.2736  10336.6  101.224
 28.4716  10108.2  100.148
 28.6696  10222.7  100.56
 28.8676  10055.9  100.084
 29.0656  9959.36  99.5842
 29.2636  9930.55  99.2299
 29.4616  9805.55  98.799
 29.6596  9889.95  98.7837
 29.8576  9665.33  98.3447
 30.0556  9863.33  99.2224
 30.2536  9993.67  99.6652
 30.4516  9704.12  97.849
 30.6496  9686.85  97.4828
 30.8476  9743.17  98.2162
 31.0456  9625.92  97.5782
 31.2436  9598.49  96.6976
 31.4416  9463.53  96.1966
 31.6396  9462.55  96.243
 31.8376  9464.91  95.7964
 32.0356  9251.48  95.2757
 32.2336  9279.45  94.797
 32.4316  9283.3  95.2438
 32.6296  9275.43  95.0379
 32.8276  9260.05  94.7273
 33.0256  9134.79  94.1656
 33.2236  9171.2  94.4898
 33.4216  9213.14  94.4007
 33.6196  9174.02  94.4994
 33.8176  9146.85  94.5202
 34.0156  9019.57  93.4646
 34.2136  8906.85  92.922
 34.4116  9015.3  93.6478
 34.6096  8817.73  92.4962
 34.8076  8689.61  92.2263
 35.0056  8751.49  92.2426
 35.2036  8805.89  92.7324
 35.4016  8840.69  92.8496
 35.5996  8682.25  92.0479
 35.7976  8602.36  91.9024
 35.9956  8793.17  92.5487
 36.1936  8649.25  91.6579
 36.3916  8539.65  91.2531
 36.5896  8515.61  92.1055
 36.7876  8486.02  91.3548
 36.9856  8313.48  90.4501
 37.1836  8528.92  90.6975
 37.3816  8511.87  90.9802
 37.5796  8431.91  92.2913
 37.7776  8287.75  89.8492
 37.9756  8326.26  89.9397
 38.1736  8245.93  89.7039
 38.3716  8316.9  90.3735
 38.5696  8225.19  90.2611
 38.7676  7928.98  88.1208
 38.9656  8063.88  88.4995
 39.1636  7959.36  88.1843
 39.3616  8220.7  89.5614
 39.5596  7987.15  89.1261
 39.7576  8001.5  88.5821
 39.9556  8195.52  89.2856
 40.1536  8255.62  89.8114
 40.3516  8294.45  90.0385
 40.5496  8206.4  89.8237
 40.7476  8299.16  90.3258
 40.9456  8244.22  89.7829
 41.1436  8246.13  89.4998
 41.3416  8092.55  89.0108
 41.5396  8140.82  89.0802
 41.7376  8145.33  89.373
 41.9356  7979.4  88.3135
 42.1336  8069.25  88.952
 42.3316  8022.58  88.9061
 42.5296  8092.53  88.7985
 42.7276  8075.32  88.9474
 42.9256  8016.33  88.4921
 43.1236  7903.23  87.9708
 43.3216  7939.47  87.9166
 43.5196  7804.92  87.2377
 43.7176  7883.65  88.0721
 43.9156  7786.76  87.4486
 44.1136  7700.89  86.5178
 44.3116  7804.39  87.112
 44.5096  7851.41  87.681
 44.7076  7730.18  86.9365
 44.9056  7711.19  86.6846
 45.1036  7712.07  86.3118
 45.3016  7549.08  85.8966
 45.4996  7490.18  85.4994
 45.6976  7466.99  85.5468
 45.8956  7604.94  86.1454
 46.0936  7582.96  86.0199
 46.2916  7628.8  86.2631
 46.4896  7570.86  85.9662
 46.6876  7564.05  86.6534
 46.8856  7386.65  84.8876
 47.0836  7411.13  85.2783
 47.2816  7267.26  84.3258
 47.4796  7372.27  85.0477
 47.6776  7273.65  85.4207
 47.8756  7304.95  84.7727
 48.0736  7276.52  85.0667
 48.2716  7116.66  83.9466
 48.4696  7147.45  83.711
 48.6676  7150.71  84.3251
 48.8656  7193.13  84.2958
 49.0636  7222.27  84.4145
 49.2616  7056.31  83.4801
 49.4596  7046.79  82.9782
 49.6576  7044.48  83.1994
 49.8556  6966.85  82.7582
 50.0536  7079.87  83.8735
 50.2516  7016.47  83.6327
 50.4496  6944.1  82.859
 50.6476  6949.65  82.5735
 50.8456  7008.75  83.0102
 51.0436  6797.87  82.2022
 51.2416  6808.46  81.9398
 51.4396  6670.07  81.501
 51.6376  6694.83  81.473
 51.8356  6710.1  81.1984
 52.0336  6653.82  81.3533
 52.2316  6575.59  81.2131
 52.4296  6741.94  81.9401
 52.6276  6683.73  81.6898
 52.8256  6655.23  81.0779
 53.0236  6539.82  81.0122
 53.2216  6433.22  80.3826
 53.4196  6494.36  80.6891
 53.6176  6328.23  80.1232
 53.8156  6409.52  80.3054
 54.0136  6429.62  80.6161
 54.2116  6489.2  80.6415
 54.4096  6473.53  80.5968
 54.6076  6449.29  80.8
 54.8056  6374.72  80.1174
 55.0036  6382.87  80.5663
 55.2016  6395.18  80.1808
 55.3996  6464.03  80.5857
 55.5976  6418.54  80.4845
 55.7956  6343.68  79.8329
 55.9936  6339.29  79.9392
 56.1916  6320.32  79.8334
 56.3896  6406.48  80.3764
 56.5876  6292.33  80.2115
 56.7856  6337.36  79.972
 56.9836  6253.09  79.2223
 57.1816  6370.91  80.3468
 57.3796  6335.22  79.9194
 57.5776  6418.68  80.3731
 57.7756  6241.71  79.8979
 57.9736  6272.11  79.765
 58.1716  6315.82  80.2893
 58.3696  6295.86  79.9099
 58.5676  6250.18  79.0931
 58.7656  6253.36  79.7958
 58.9636  6497.89  81.3749
 59.1616  6253.69  79.9476
 59.3596  6392.88  80.0872
 59.5576  6381.71  80.0753
 59.7556  6291.06  79.9315
 59.9536  6482.13  81.0315
 60.1516  6320.49  80.8833
 60.1996  0.0000000E+00  0.0000000E+00