Folder: echemistpy/docs/examples/XRD/IS17_D/Data/IS17_D_fresh (part 2)

File: 17_D_fresh_f00005.xye
# /beamlines/bl04/projects/cycle2025-II/20250340211-lsimonelli/DATA/IS17_D_fresh/17_D_fresh_f00005.xye : mythproc.py merge -s 0.006 -l 0.5 -f /beamlines/bl04/inhouse/ff/FlatField/ff_20Nov2024rod8mm60s_17keV.raw -b True -c true -o xye /beamlines/bl04/projects/cycle2025-II/20250340211-lsimonelli/DATA/IS17_D_fresh/17_D_fresh_00005.dat
# IsMon = [6757458, 6773189, 6787717]  IsPos = [-1.4999, -2.4885, -3.4988]
# Wave = 0.4962  CalPath /beamlines/bl04/projects/cycle2025-II/20250340211-lsimonelli/DATA/Align/Si_Pos1_25keV_f00001.cal
# Date = 2025-09-24_10:36:56 Dt = 4.8000  Bin = 0.0060  <imon> = 6772788 +/- 12356 (Min/Max) 6757458 / 6787717
# icurr 250.0196  mocoIn 1.7071E-05  mocoOut 0.8004  i15 7.08926e+06  imon 6.77279e+06  i7 8.6667  iEMpd_timer 4.8000  iEMpd_1 3.4260E-08  iEMpd_2 7.8418E-08  iEMpd_3 1.5954E-08  iEMpd_4 4.7509E-08  iEMhp_timer 4.8000  iEMhp_1 4.8982E-06  iEMhp_2 -2.6445E-08  iEMhp_3 -2.5068E-08  iEMhp_4 -2.2369E-08
#      9776
 1.7416  68603  262.294
 1.9396  44796.6  212.226
 2.1376  31948.4  179.222
 2.3356  28652.2  169.369
 2.5336  26781.6  164.323
 2.7316  25464.6  160.245
 2.9296  24551.7  157.513
 3.1276  24076.1  155.56
 3.3256  23927  154.685
 3.5236  25657.2  160.169
 3.7216  23742.1  155.092
 3.9196  23506.1  153.547
 4.1176  23238.9  152.477
 4.3156  24833.7  157.695
 4.5136  27042.6  163.575
 4.7116  28429.5  168.88
 4.9096  27759.3  166.301
 5.1076  27513.6  166.194
 5.3056  27969  167.207
 5.5036  27712.2  166.447
 5.7016  28437.6  168.494
 5.8996  29261.3  170.105
 6.0976  29789.1  173.165
 6.2956  30585.6  174.693
 6.4936  31428.3  176.291
 6.6916  31862.9  178.537
 6.8896  32769.2  180.915
 7.0876  33788.5  184.456
 7.2856  34010  184.078
 7.4836  34424.1  184.504
 7.6816  35241  187.24
 7.8796  37197.2  192.25
 8.0776  39057.1  198.03
 8.2756  41063.9  201.56
 8.4736  42049.3  203.792
 8.6716  41693.9  203.633
 8.8696  41039.4  202.585
 9.0676  40462.2  200.495
 9.2656  39326.9  198.387
 9.4636  39011.1  195.833
 9.6616  38270.5  194.786
 9.8596  36923  190.935
 10.0576  35159.3  186.996
 10.2556  33957.2  184.253
 10.4536  32494.7  179.825
 10.6516  32128.8  179.004
 10.8496  31164.4  175.594
 11.0476  30253.7  172.988
 11.2456  29589.6  171.696
 11.4436  29993.6  171.983
 11.6416  28796.6  168.899
 11.8396  27486.9  165.265
 12.0376  27522.6  164.893
 12.2356  26816.1  163.263
 12.4336  26789.2  162.672
 12.6316  26440.5  161.929
 12.8296  27113.8  163.566
 13.0276  27633.2  165.277
 13.2256  27198.1  164.383
 13.4236  27177.7  164.072
 13.6216  26953  163.462
 13.8196  27023.5  163.389
 14.0176  26894.2  163.259
 14.2156  26161.4  160.057
 14.4136  24871.8  157.498
 14.6116  24557.7  155.671
 14.8096  23872.7  153.432
 15.0076  22614.6  153.399
 15.2056  22540.5  148.623
 15.4036  21449.3  145.867
 15.6016  21022  143.433
 15.7996  20397.9  141.55
 15.9976  19457.9  141.423
 16.1956  18558.2  135.93
 16.3936  18381  134.412
 16.5916  18165.8  134.278
 16.7896  18130.7  134.225
 16.9876  17926.1  135.024
 17.1856  17825.4  132.931
 17.3836  16954.7  129.558
 17.5816  16826.3  129.591
 17.7796  16522.2  128.338
 17.9776  16221.9  127.928
 18.1756  16652  128.247
 18.3736  16538.9  128.359
 18.5716  15957.2  125.816
 18.7696  16173.4  126.217
 18.9676  15720.9  124.264
 19.1656  15643.1  124.469
 19.3636  15645.7  124.725
 19.5616  15515.3  124.377
 19.7596  15653.2  124.338
 19.9576  16219.6  126.6
 20.1556  15652.5  124.895
 20.3536  15156.6  122.264
 20.5516  14906  121.729
 20.7496  14772.4  121.113
 20.9476  14501  119.769
 21.1456  14831.8  121.42
 21.3436  14471.2  119.902
 21.5416  14394.5  119.581
 21.7396  14083.6  118.127
 21.9376  14165.6  118.182
 22.1356  14292.9  118.881
 22.3336  14301.2  119.154
 22.5316  14225.8  118.955
 22.7296  14192.4  118.135
 22.9276  14021.1  118.13
 23.1256  14428.9  119.263
 23.3236  13838.9  117.45
 23.5216  13867.5  117.228
 23.7196  13661.6  116.289
 23.9176  13607.7  115.843
 24.1156  13376.5  115.316
 24.3136  12945.2  114.316
 24.5116  13041.6  114.244
 24.7096  12852.2  113.229
 24.9076  12517.3  111.79
 25.1056  12398.3  111.415
 25.3036  12411.8  111.21
 25.5016  12148.2  110.052
 25.6996  12143.6  109.6
 25.8976  11988.2  109.375
 26.0956  12121.4  109.95
 26.2936  12074.2  109.379
 26.4916  12168.3  109.698
 26.6896  11842.1  108.516
 26.8876  11566  107.123
 27.0856  11772.5  108.033
 27.2836  11421.1  106.357
 27.4816  11268.6  105.575
 27.6796  11336.8  106.299
 27.8776  11139.9  105.244
 28.0756  11261.3  106.067
 28.2736  11077  104.78
 28.4716  10874.2  103.866
 28.6696  10980  104.214
 28.8676  10798.4  103.713
 29.0656  10689.5  103.164
 29.2636  10677.9  102.839
 29.4616  10831  103.767
 29.6596  10727.9  102.815
 29.8576  10341.1  101.659
 30.0556  10579  102.669
 30.2536  10730.4  103.206
 30.4516  10311.9  100.871
 30.6496  10298.7  100.517
 30.8476  10316.6  101.072
 31.0456  10245.5  100.719
 31.2436  10091.4  99.1958
 31.4416  10324.1  100.532
 31.6396  10190.3  99.9305
 31.8376  10213.5  99.5769
 32.0356  10063.6  99.4328
 32.2336  9928.52  98.1416
 32.4316  9930.51  98.5045
 32.6296  9847.9  97.8516
 32.8276  9913.12  98.0061
 33.0256  9879.37  97.9165
 33.2236  9747.6  97.4433
 33.4216  9710.91  96.8802
 33.6196  9724.03  97.2804
 33.8176  9518.34  96.4284
 34.0156  9456.12  95.712
 34.2136  9488.95  95.943
 34.4116  9302.23  95.1047
 34.6096  9308.9  95.0334
 34.8076  9208.87  94.9487
 35.0056  9245.78  94.8139
 35.2036  9257.05  95.1191
 35.4016  9119.41  94.2778
 35.5996  9090.53  94.1865
 35.7976  8951.13  93.7478
 35.9956  8930.24  93.2725
 36.1936  8951.49  93.2466
 36.3916  8879.68  93.0551
 36.5896  8815.57  94.2304
 36.7876  8732.92  92.6068
 36.9856  8596.91  91.9145
 37.1836  8645.5  91.2571
 37.3816  8634.43  91.5592
 37.5796  8618.63  93.3206
 37.7776  8500.74  91.0443
 37.9756  8599  91.4495
 38.1736  8660.96  91.9427
 38.3716  8546.2  91.6131
 38.5696  8425.25  91.345
 38.7676  8284.47  90.1283
 38.9656  8361.7  90.1709
 39.1636  8433.88  90.8037
 39.3616  8399.45  90.5632
 39.5596  8095  89.726
 39.7576  8161.4  89.4679
 39.9556  8183.21  89.2137
 40.1536  8381.13  90.4947
 40.3516  8356.75  90.3804
 40.5496  8352.72  90.3971
 40.7476  8337.05  90.5332
 40.9456  8344.58  90.3256
 41.1436  8284.65  89.7397
 41.3416  8209.64  89.6262
 41.5396  8151.32  89.1364
 41.7376  8126.6  89.2716
 41.9356  8075.31  88.8456
 42.1336  8140.27  89.3744
 42.3316  8085.82  89.2293
 42.5296  8109.66  88.8911
 42.7276  8077.24  88.9551
 42.9256  8089.79  88.8874
 43.1236  7935.5  88.1434
 43.3216  8088.11  88.8456
 43.5196  7874.26  87.6441
 43.7176  7999.73  88.7134
 43.9156  7864.45  87.8306
 44.1136  8078.42  88.5555
 44.3116  8000.66  88.1287
 44.5096  7913.91  87.9764
 44.7076  8016.84  88.4775
 44.9056  7776.38  87.044
 45.1036  7775.15  86.6578
 45.3016  7615.02  86.2735
 45.4996  7619.86  86.2257
 45.6976  7662.57  86.6178
 45.8956  7554.56  85.9038
 46.0936  7495.61  85.576
 46.2916  7599.4  86.1431
 46.4896  7584.67  86.101
 46.6876  7442.22  86.0034
 46.8856  7706.68  86.7189
 47.0836  7549.26  86.0936
 47.2816  7603.86  86.243
 47.4796  7697.02  86.9008
 47.6776  7507.2  86.782
 47.8756  7620.02  86.5629
 48.0736  7556.33  86.6813
 48.2716  7466.16  85.9626
 48.4696  7556.69  86.0884
 48.6676  7528.25  86.5201
 48.8656  7641.95  86.9045
 49.0636  7434.34  85.6777
 49.2616  7474.59  85.8947
 49.4596  7463.71  85.4148
 49.6576  7434.37  85.4813
 49.8556  7406.67  85.3189
 50.0536  7412.46  85.8107
 50.2516  7376.3  85.7292
 50.4496  7541.8  86.3294
 50.6476  7388.84  85.1335
 50.8456  7427.59  85.4592
 51.0436  7406.33  85.746
 51.2416  7454.88  85.6702
 51.4396  7306.07  85.2437
 51.6376  7271.3  84.8688
 51.8356  7433.7  85.4161
 52.0336  7062.31  83.8006
 52.2316  7156.75  84.7241
 52.4296  7247.5  84.8981
 52.6276  7139.14  84.4038
 52.8256  7120.18  83.8233
 53.0236  7101.71  84.4637
 53.2216  7042.54  84.1424
 53.4196  6954.58  83.5451
 53.6176  7022.81  84.4464
 53.8156  6996.61  83.9413
 54.0136  7057.05  84.4312
 54.2116  7061.72  84.1475
 54.4096  7069.56  84.2237
 54.6076  6942.22  83.8178
 54.8056  7031.64  84.1376
 55.0036  6986.52  84.274
 55.2016  6968.98  83.7176
 55.3996  7004.01  83.8586
 55.5976  6916.68  83.558
 55.7956  6934.26  83.4554
 55.9936  6945.87  83.6977
 56.1916  6997.76  84.0004
 56.3896  6990.29  83.9372
 56.5876  6829.37  83.5574
 56.7856  6862.65  83.222
 56.9836  6842.33  82.8892
 57.1816  7004.61  84.2701
 57.3796  6957.93  83.7527
 57.5776  6894.64  83.3038
 57.7756  6878.84  83.8749
 57.9736  6927.52  83.8296
 58.1716  6951.24  84.1988
 58.3696  6920.32  83.7442
 58.5676  7066.52  84.0483
 58.7656  6977.13  84.2314
 58.9636  7043.96  84.6687
 59.1616  6900.81  83.9344
 59.3596  7142.85  84.5542
 59.5576  7078.8  84.2359
 59.7556  6850.09  83.3089
 59.9536  7047.12  84.3894
 60.1516  6939.99  84.6544
 60.1996  0.0000000E+00  0.0000000E+00