Folder: echemistpy/docs/examples/XRD/IS17_D/Data/IS17_D (part 24)

File: 17_Db_f00058.xye
# /beamlines/bl04/projects/cycle2025-II/20250340211-lsimonelli/DATA/IS17_D/17_Db_f00058.xye : mythproc.py merge -s 0.006 -l 0.5 -f /beamlines/bl04/inhouse/ff/FlatField/ff_20Nov2024rod8mm60s_17keV.raw -b True -c true -o xye /beamlines/bl04/projects/cycle2025-II/20250340211-lsimonelli/DATA/IS17_D/17_Db_00058.dat
# IsMon = [6753937, 6758819, 6759399]  IsPos = [-1.4999, -2.4884, -3.4988]
# Wave = 0.4962  CalPath /beamlines/bl04/projects/cycle2025-II/20250340211-lsimonelli/DATA/Align/Si_Pos1_25keV_f00001.cal
# Date = 2025-09-24_09:49:57 Dt = 4.8000  Bin = 0.0060  <imon> = 6757385 +/- 2450 (Min/Max) 6753937 / 6759399
# icurr 250.2435  mocoIn 1.7072E-05  mocoOut 0.8012  i15 7.08435e+06  imon 6.75738e+06  i7 5.0000  iEMpd_timer 4.8000  iEMpd_1 3.4934E-08  iEMpd_2 7.6618E-08  iEMpd_3 1.6644E-08  iEMpd_4 4.8498E-08  iEMhp_timer 4.8000  iEMhp_1 4.8887E-06  iEMhp_2 -2.5992E-08  iEMhp_3 -2.3887E-08  iEMhp_4 -2.2551E-08
#      9776
 1.7416  69783.6  264.309
 1.9396  48635.9  220.945
 2.1376  35587.6  188.987
 2.3356  32024.4  178.901
 2.5336  29499.6  172.309
 2.7316  27075.8  165.167
 2.9296  25959.5  161.874
 3.1276  25493.3  159.961
 3.3256  24893.4  157.712
 3.5236  26486.5  162.48
 3.7216  24262.5  156.774
 3.9196  23593.9  153.808
 4.1176  23670  153.844
 4.3156  24532  156.778
 4.5136  26883  163.087
 4.7116  27922.1  167.357
 4.9096  27420.5  165.282
 5.1076  26982.9  164.547
 5.3056  27117  164.663
 5.5036  26866.3  163.807
 5.7016  27384  165.346
 5.8996  27899  166.121
 6.0976  28517.7  169.38
 6.2956  28744.5  169.378
 6.4936  29463.8  170.681
 6.6916  29926.2  173.009
 6.8896  30662.1  174.98
 7.0876  31441.2  177.932
 7.2856  31566.7  177.324
 7.4836  31992.7  177.867
 7.6816  32900.7  180.895
 7.8796  33732.8  183.159
 8.0776  34884.5  187.235
 8.2756  36791.5  190.904
 8.4736  37364  192.189
 8.6716  36639.4  190.941
 8.8696  37408.4  193.47
 9.0676  36542.4  190.538
 9.2656  35384.2  188.193
 9.4636  34635  184.636
 9.6616  33921  183.459
 9.8596  33256.9  181.11
 10.0576  31121.2  175.857
 10.2556  30192.9  173.667
 10.4536  29389.3  170.943
 10.6516  28810.9  169.458
 10.8496  27573  165.19
 11.0476  26657.2  162.438
 11.2456  25966.7  160.841
 11.4436  26434.2  161.46
 11.6416  26293.4  161.373
 11.8396  24886.8  157.203
 12.0376  24340.4  155.11
 12.2356  23853.7  153.959
 12.4336  23959.3  153.853
 12.6316  23861.7  153.811
 12.8296  23936.3  153.651
 13.0276  24330.3  155.113
 13.2256  24497.1  156.018
 13.4236  24262.7  155.039
 13.6216  24606.2  156.139
 13.8196  26724.6  162.196
 14.0176  23625.4  153.06
 14.2156  23422.4  151.434
 14.4136  22193.9  148.789
 14.6116  21923  147.079
 14.8096  21321.5  145.02
 15.0076  20208.2  145.076
 15.2056  19257.2  137.432
 15.4036  18419  135.234
 15.6016  18063.5  133.014
 15.7996  17586.6  131.509
 15.9976  17424.2  133.829
 16.1956  16754.5  129.142
 16.3936  16566.4  127.586
 16.5916  16354.9  127.421
 16.7896  16492.7  128.011
 16.9876  16364.6  128.965
 17.1856  16038.7  126.06
 17.3836  15740.1  124.798
 17.5816  15186  123.061
 17.7796  14922.3  121.918
 17.9776  14719.3  121.855
 18.1756  14668.5  120.394
 18.3736  14584.3  120.523
 18.5716  14286.4  119.045
 18.7696  14214.1  118.319
 18.9676  14172.1  117.936
 19.1656  13831.2  117.089
 19.3636  13754.8  116.959
 19.5616  13693.9  116.87
 19.7596  14081.5  117.915
 19.9576  14710.8  120.566
 20.1556  14125.7  118.657
 20.3536  13627.5  115.948
 20.5516  13520.1  115.932
 20.7496  13122.1  114.151
 20.9476  13066.6  113.67
 21.1456  12942.6  113.441
 21.3436  12802.2  112.783
 21.5416  12778.7  112.687
 21.7396  12579  111.648
 21.9376  12542.6  111.258
 22.1356  12608.2  111.671
 22.3336  12287.8  110.516
 22.5316  12352.8  110.893
 22.7296  12310.3  110.081
 22.9276  12203.4  110.262
 23.1256  12473.2  110.95
 23.3236  12732.7  112.696
 23.5216  12604.1  111.75
 23.7196  12429.9  110.939
 23.9176  12492  110.97
 24.1156  12119.6  109.756
 24.3136  11949.1  109.789
 24.5116  12112.3  110.049
 24.7096  11556.7  107.311
 24.9076  11384.7  106.546
 25.1056  11206.7  106.159
 25.3036  11026.4  104.81
 25.5016  10967.3  104.577
 25.6996  11050.6  104.551
 25.8976  10905.5  104.3
 26.0956  10765.6  103.632
 26.2936  10972.4  104.278
 26.4916  10981  104.185
 26.6896  10825.5  103.745
 26.8876  10654.3  102.795
 27.0856  10321.6  101.221
 27.2836  10261.5  100.82
 27.4816  10261.6  100.748
 27.6796  10251.2  101.075
 27.8776  10424.3  101.783
 28.0756  10106.7  100.499
 28.2736  10066.1  99.8873
 28.4716  9831.87  98.773
 28.6696  9910.75  99.0134
 28.8676  9726.24  98.4297
 29.0656  9639.94  97.9709
 29.2636  9604.65  97.5884
 29.4616  9278.05  96.0844
 29.6596  9358.78  96.0744
 29.8576  9253.06  96.2016
 30.0556  9234.84  95.9868
 30.2536  9284.66  96.0432
 30.4516  9469.28  96.6519
 30.6496  9537.73  96.7362
 30.8476  9503.21  96.9919
 31.0456  9483.6  96.8682
 31.2436  9461.77  96.0144
 31.4416  9412.92  95.9535
 31.6396  9385.52  95.8585
 31.8376  9250.98  94.6868
 32.0356  9219.11  95.0956
 32.2336  9268.23  94.7559
 32.4316  8926.71  93.3895
 32.6296  8892.04  93.04
 32.8276  8872.06  92.7316
 33.0256  8809.37  92.4647
 33.2236  8920.26  93.189
 33.4216  8862.1  92.5664
 33.6196  8738.9  92.2112
 33.8176  8774.53  92.579
 34.0156  8714.5  91.8856
 34.2136  8810.37  92.419
 34.4116  8528.57  91.0808
 34.6096  8562.23  91.1388
 34.8076  8487.3  91.1603
 35.0056  8449.47  90.6303
 35.2036  8694.98  92.1575
 35.4016  8442.32  90.7193
 35.5996  8318.35  90.0947
 35.7976  8269.59  90.0959
 35.9956  8499.08  90.9788
 36.1936  8460.2  90.634
 36.3916  8282.57  89.8717
 36.5896  8268.14  90.7791
 36.7876  8010.68  88.7429
 36.9856  8092.75  89.2212
 37.1836  8068.1  88.1973
 37.3816  8033.49  88.3692
 37.5796  8120.05  90.5748
 37.7776  8069.95  88.681
 37.9756  8145.01  88.9766
 38.1736  8209.1  89.5112
 38.3716  8027.38  88.788
 38.5696  7933.7  88.6413
 38.7676  7796.68  87.386
 38.9656  7870.87  87.4378
 39.1636  7923.01  87.9988
 39.3616  7949.68  88.0749
 39.5596  7793.07  88.0328
 39.7576  7778.18  87.3422
 39.9556  7852.46  87.3925
 40.1536  7970.07  88.2465
 40.3516  8020.08  88.5249
 40.5496  7859.78  87.8975
 40.7476  8009.32  88.7229
 40.9456  8099.04  88.985
 41.1436  8113.95  88.7899
 41.3416  7863.73  87.7344
 41.5396  7844.49  87.4335
 41.7376  7899.63  88.0045
 41.9356  7754.27  87.0521
 42.1336  8068.75  88.9486
 42.3316  7734.09  87.2681
 42.5296  7894.63  87.6941
 42.7276  7805.57  87.4492
 42.9256  7803.17  87.3077
 43.1236  7730.79  87.0057
 43.3216  7829.21  87.3053
 43.5196  7667.26  86.4555
 43.7176  7659.37  86.7972
 43.9156  7560.07  86.1482
 44.1136  7509.78  85.4181
 44.3116  7583.03  85.8482
 44.5096  7583.87  86.1632
 44.7076  7539.52  85.8403
 44.9056  7650.53  86.3515
 45.1036  7600.65  85.6888
 45.3016  7586.59  86.1094
 45.4996  7540.39  85.7927
 45.6976  7406.67  85.1964
 45.8956  7482.65  85.4559
 46.0936  7614.28  86.2158
 46.2916  7658.64  86.4386
 46.4896  7557.34  85.8955
 46.6876  7445.06  85.971
 46.8856  7410.98  85.0285
 47.0836  7421.23  85.3452
 47.2816  7351.74  84.8142
 47.4796  7453.79  85.5083
 47.6776  7279.62  85.4488
 47.8756  7355.49  85.061
 48.0736  7314.67  85.2855
 48.2716  7236.23  84.6384
 48.4696  7427.55  85.3401
 48.6676  7339.62  85.4326
 48.8656  7428.78  85.6722
 49.0636  7391.08  85.404
 49.2616  7217.37  84.4205
 49.4596  7306.32  84.4987
 49.6576  7254.73  84.4401
 49.8556  7272.85  84.5556
 50.0536  7190.13  84.5213
 50.2516  7242.7  84.9701
 50.4496  7311.18  85.0153
 50.6476  7224.11  84.1815
 50.8456  7346.99  84.9879
 51.0436  7078.28  83.8625
 51.2416  7047.04  83.3422
 51.4396  6832.18  82.4674
 51.6376  6972.37  83.1291
 51.8356  6924.23  82.4611
 52.0336  7044.74  83.6867
 52.2316  6966.48  83.6089
 52.4296  6984.41  83.4063
 52.6276  6959.59  83.364
 52.8256  6894.7  82.541
 53.0236  7073.76  84.2545
 53.2216  6980.05  83.7307
 53.4196  6979.86  83.6538
 53.6176  6981.64  84.1647
 53.8156  6893.59  83.2925
 54.0136  6691.32  82.2239
 54.2116  6836.49  82.7487
 54.4096  6684.62  81.8874
 54.6076  6635.02  81.9359
 54.8056  6635.5  81.7099
 55.0036  6505.74  81.3168
 55.2016  6762.34  82.4005
 55.3996  6451.93  80.4905
 55.5976  6380.28  80.223
 55.7956  6483.41  80.652
 55.9936  6502.02  80.9357
 56.1916  6334.66  79.9242
 56.3896  6334.65  79.9042
 56.5876  6327.52  80.3985
 56.7856  6224.95  79.253
 56.9836  6427.76  80.3128
 57.1816  6478.69  80.9805
 57.3796  6282.07  79.5668
 57.5776  6278.57  79.437
 57.7756  6244.45  79.8932
 57.9736  6206.05  79.2996
 58.1716  6165.62  79.315
 58.3696  5931  77.5476
 58.5676  6053.29  77.8005
 58.7656  6010.37  78.2127
 58.9636  5986.95  78.0921
 59.1616  5941.92  77.9245
 59.3596  6052.64  77.9091
 59.5576  6006.6  77.6685
 59.7556  5819.54  76.8601
 59.9536  6089.27  78.5196
 60.1516  5834.6  77.6943
 60.1996  0.0000000E+00  0.0000000E+00

File: 17_Db_f00059.xye
# /beamlines/bl04/projects/cycle2025-II/20250340211-lsimonelli/DATA/IS17_D/17_Db_f00059.xye : mythproc.py merge -s 0.006 -l 0.5 -f /beamlines/bl04/inhouse/ff/FlatField/ff_20Nov2024rod8mm60s_17keV.raw -b True -c true -o xye /beamlines/bl04/projects/cycle2025-II/20250340211-lsimonelli/DATA/IS17_D/17_Db_00059.dat
# IsMon = [6761325, 6764537, 6763245]  IsPos = [-1.4999, -2.4885, -3.4988]
# Wave = 0.4962  CalPath /beamlines/bl04/projects/cycle2025-II/20250340211-lsimonelli/DATA/Align/Si_Pos1_25keV_f00001.cal
# Date = 2025-09-24_10:06:42 Dt = 4.8000  Bin = 0.0060  <imon> = 6763036 +/- 1320 (Min/Max) 6761325 / 6764537
# icurr 250.9789  mocoIn 1.7123E-05  mocoOut 0.8034  i15 7.08812e+06  imon 6.76304e+06  i7 5.3333  iEMpd_timer 4.8000  iEMpd_1 3.5061E-08  iEMpd_2 7.9142E-08  iEMpd_3 1.6385E-08  iEMpd_4 4.7564E-08  iEMhp_timer 4.8000  iEMhp_1 4.9042E-06  iEMhp_2 -2.6824E-08  iEMhp_3 -2.4326E-08  iEMhp_4 -2.2877E-08
#      9776
 1.7416  70109.5  264.891
 1.9396  48542.4  220.705
 2.1376  36072.1  190.246
 2.3356  32075.2  179.02
 2.5336  29287.2  171.665
 2.7316  27055  165.092
 2.9296  26103.3  162.322
 3.1276  25667.4  160.495
 3.3256  24891.5  157.706
 3.5236  26586.6  162.946
 3.7216  24405.8  157.235
 3.9196  23620.4  153.89
 4.1176  23708.5  153.965
 4.3156  24612.4  157.038
 4.5136  26997  163.434
 4.7116  28090.1  167.865
 4.9096  27228.3  164.697
 5.1076  27172.9  165.12
 5.3056  26996.1  164.303
 5.5036  26876.4  163.931
 5.7016  27249.9  164.941
 5.8996  27901.7  166.129
 6.0976  28602.1  169.612
 6.2956  28779.6  169.486
 6.4936  29585.8  171.031
 6.6916  29653.6  172.232
 6.8896  30732  175.166
 7.0876  31724.4  178.728
 7.2856  31712.4  177.737
 7.4836  31987.8  177.854
 7.6816  32803.2  180.605
 7.8796  33487.2  182.499
 8.0776  35392.1  188.604
 8.2756  37023.8  191.518
 8.4736  37372.7  192.221
 8.6716  37027.4  191.956
 8.8696  37437.2  193.542
 9.0676  36726.7  191.03
 9.2656  35520.5  188.556
 9.4636  34811.9  185.115
 9.6616  34143.1  184.061
 9.8596  33642.1  182.142
 10.0576  31343.3  176.47
 10.2556  30551.4  174.691
 10.4536  29521.3  171.302
 10.6516  28772.3  169.338
 10.8496  27680.6  165.51
 11.0476  26667.8  162.414
 11.2456  26030.5  161.044
 11.4436  26777.8  162.506
 11.6416  26126.9  160.865
 11.8396  24769.9  156.83
 12.0376  24337  155.083
 12.2356  24083.3  154.731
 12.4336  23987.2  153.936
 12.6316  23882.4  153.87
 12.8296  24077.8  154.101
 13.0276  24354.5  155.197
 13.2256  24434.6  155.822
 13.4236  24304.4  155.168
 13.6216  24747.1  156.578
 13.8196  26823.4  162.491
 14.0176  23748.4  153.461
 14.2156  23262.7  150.919
 14.4136  22325.1  149.231
 14.6116  21983.8  147.277
 14.8096  21222  144.686
 15.0076  20260.2  145.262
 15.2056  19476.3  138.214
 15.4036  18553.7  135.738
 15.6016  18148.2  133.336
 15.7996  17535.8  131.338
 15.9976  17488  134.067
 16.1956  17077  130.376
 16.3936  16789.1  128.457
 16.5916  16447.9  127.782
 16.7896  16514.8  128.101
 16.9876  16357.4  128.939
 17.1856  16060  126.136
 17.3836  15607.1  124.261
 17.5816  15151.4  122.914
 17.7796  15239.9  123.198
 17.9776  14739.3  121.934
 18.1756  14796  120.916
 18.3736  14581.5  120.512
 18.5716  14345.9  119.294
 18.7696  14387.8  119.017
 18.9676  14186.6  117.999
 19.1656  13962.8  117.648
 19.3636  13778.7  117.06
 19.5616  13964.3  118.017
 19.7596  14185.5  118.343
 19.9576  14651.5  120.313
 20.1556  14106.9  118.586
 20.3536  13756.4  116.481
 20.5516  13369.6  115.281
 20.7496  13142  114.227
 20.9476  13151.1  114.03
 21.1456  13039.4  113.869
 21.3436  12917.8  113.291
 21.5416  12846.9  112.992
 21.7396  12605  111.763
 21.9376  12538  111.241
 22.1356  12686.4  112.014
 22.3336  12399.1  111.004
 22.5316  12315.6  110.736
 22.7296  12382.1  110.412
 22.9276  12206  110.278
 23.1256  12579.6  111.436
 23.3236  12775.8  112.886
 23.5216  12468.8  111.158
 23.7196  12376  110.697
 23.9176  12551  111.227
 24.1156  12430.3  111.149
 24.3136  11876.4  109.444
 24.5116  12154.6  110.236
 24.7096  11560.5  107.324
 24.9076  11547.9  107.301
 25.1056  11261.4  106.133
 25.3036  11058.3  104.965
 25.5016  11048.1  104.955
 25.6996  11028.8  104.448
 25.8976  11039.3  104.931
 26.0956  10809.4  103.845
 26.2936  10922.1  104.043
 26.4916  11149.2  104.966
 26.6896  10828.6  103.759
 26.8876  10683.6  102.926
 27.0856  10438.5  101.753
 27.2836  10346.7  101.236
 27.4816  10238  100.647
 27.6796  10162.3  100.632
 27.8776  10422.3  101.768
 28.0756  10121.1  100.573
 28.2736  10042  99.7625
 28.4716  9953.49  99.3757
 28.6696  9910.65  99.0089
 28.8676  9895.2  99.2882
 29.0656  9667.21  98.1095
 29.2636  9744.08  98.2145
 29.4616  9401.18  96.7239
 29.6596  9543.97  97.0263
 29.8576  9292.38  96.4144
 30.0556  9257.04  96.1085
 30.2536  9428.48  96.783
 30.4516  9345.65  96.0187
 30.6496  9486.8  96.4769
 30.8476  9459.23  96.7754
 31.0456  9475.68  96.826
 31.2436  9409.42  95.7489
 31.4416  9379.02  95.7757
 31.6396  9340.31  95.6236
 31.8376  9375.18  95.3259
 32.0356  9155.03  94.7494
 32.2336  9257.5  94.6946
 32.4316  8944.55  93.4835
 32.6296  9081.46  93.957
 32.8276  8956.63  93.1704
 33.0256  8798.77  92.4047
 33.2236  8969.82  93.4545
 33.4216  8941.91  92.9814
 33.6196  8789.22  92.4765
 33.8176  8832.76  92.8771
 34.0156  8764.06  92.1423
 34.2136  8806.46  92.3952
 34.4116  8492.58  90.8926
 34.6096  8672.24  91.7245
 34.8076  8522.16  91.3461
 35.0056  8495.58  90.8673
 35.2036  8735.59  92.3804
 35.4016  8451.6  90.7755
 35.5996  8435.47  90.7163
 35.7976  8338.99  90.4773
 35.9956  8509.09  91.043
 36.1936  8416.94  90.3846
 36.3916  8347.7  90.2224
 36.5896  8343.86  91.6613
 36.7876  8102.53  89.2523
 36.9856  7915.05  88.241
 37.1836  8136.98  88.5745
 37.3816  8111.4  88.8032
 37.5796  8071.71  90.305
 37.7776  8221.1  89.5067
 37.9756  8143.7  88.966
 38.1736  8239.63  89.6841
 38.3716  7969.05  88.4556
 38.5696  7917.18  88.5332
 38.7676  7946.98  88.2247
 38.9656  7993.33  88.1099
 39.1636  8018.04  88.4849
 39.3616  8033.47  88.5338
 39.5596  7851.17  88.3572
 39.7576  7846.91  87.7261
 39.9556  7971.07  88.0563
 40.1536  7892.4  87.8181
 40.3516  7947.3  88.1276
 40.5496  8018.07  88.5669
 40.7476  8039.5  88.9013
 40.9456  7984.39  88.3548
 41.1436  8004.74  88.1861
 41.3416  7863.47  87.7361
 41.5396  7935.31  87.9415
 41.7376  7868.13  87.8267
 41.9356  7890.28  87.8182
 42.1336  8020.39  88.6838
 42.3316  7769.03  87.4802
 42.5296  7992.11  88.2369
 42.7276  7814.78  87.495
 42.9256  7817.37  87.3838
 43.1236  7774.34  87.252
 43.3216  7798.14  87.2338
 43.5196  7774.06  87.0523
 43.7176  7741.87  87.2658
 43.9156  7535.91  86.0179
 44.1136  7498.77  85.3584
 44.3116  7566.15  85.7547
 44.5096  7620.03  86.3734
 44.7076  7575.34  86.0472
 44.9056  7800.74  87.1957
 45.1036  7585.49  85.6061
 45.3016  7640.03  86.4165
 45.4996  7628.52  86.2931
 45.6976  7535.24  85.9419
 45.8956  7570.26  85.9474
 46.0936  7642.48  86.3641
 46.2916  7556.17  85.8537
 46.4896  7645.82  86.3762
 46.6876  7466.15  86.0919
 46.8856  7461.53  85.297
 47.0836  7417.94  85.3189
 47.2816  7426.87  85.2454
 47.4796  7451  85.4854
 47.6776  7244.37  85.2539
 47.8756  7400.16  85.324
 48.0736  7396.45  85.7675
 48.2716  7369.11  85.4117
 48.4696  7556.22  86.0775
 48.6676  7363.84  85.5784
 48.8656  7509.81  86.1374
 49.0636  7413.93  85.5363
 49.2616  7248.02  84.6003
 49.4596  7377.91  84.9103
 49.6576  7316.45  84.7876
 49.8556  7426.8  85.4462
 50.0536  7298.43  85.1558
 50.2516  7260.65  85.0446
 50.4496  7286.45  84.864
 50.6476  7342.53  84.8697
 50.8456  7260.1  84.4723
 51.0436  7105.5  84.0274
 51.2416  6973.35  82.9172
 51.4396  6778.91  82.1514
 51.6376  7138.21  84.1111
 51.8356  6955.14  82.6474
 52.0336  6991.4  83.3849
 52.2316  7021.68  83.9387
 52.4296  6979.2  83.3794
 52.6276  6895.83  82.9932
 52.8256  7046.38  83.4428
 53.0236  7015.47  83.8996
 53.2216  6998.47  83.8428
 53.4196  6955.69  83.4867
 53.6176  6856.34  83.3991
 53.8156  6844.29  82.9871
 54.0136  6668.92  82.0828
 54.2116  6749.27  82.2233
 54.4096  6576.94  81.2087
 54.6076  6555.91  81.4425
 54.8056  6550.5  81.1802
 55.0036  6603.14  81.9161
 55.2016  6664.32  81.8166
 55.3996  6387.84  80.0917
 55.5976  6467.75  80.7711
 55.7956  6397.34  80.1399
 55.9936  6598.03  81.5384
 56.1916  6435.63  80.5624
 56.3896  6304.11  79.7048
 56.5876  6318.55  80.3526
 56.7856  6320.27  79.8535
 56.9836  6393.35  80.097
 57.1816  6439.61  80.7433
 57.3796  6326.36  79.8399
 57.5776  6241.57  79.1994
 57.7756  6189.95  79.5521
 57.9736  6138.15  78.8739
 58.1716  6079.4  78.7558
 58.3696  5902.78  77.3642
 58.5676  6011.95  77.5484
 58.7656  5898.14  77.4851
 58.9636  5898.04  77.5139
 59.1616  6039.42  78.5711
 59.3596  6091.61  78.1699
 59.5576  6015.17  77.7343
 59.7556  5908.74  77.4573
 59.9536  6140.26  78.8582
 60.1516  5918.29  78.26
 60.1996  0.0000000E+00  0.0000000E+00