Folder: echemistpy/docs/examples/XRD/IS17_D/Data/IS17_D (part 15)

File: 17_Da_f00120.xye
# /beamlines/bl04/projects/cycle2025-II/20250340211-lsimonelli/DATA/IS17_D/17_Da_f00120.xye : mythproc.py merge -s 0.006 -l 0.5 -f /beamlines/bl04/inhouse/ff/FlatField/ff_20Nov2024rod8mm60s_17keV.raw -b True -c true -o xye /beamlines/bl04/projects/cycle2025-II/20250340211-lsimonelli/DATA/IS17_D/17_Da_00120.dat
# IsMon = [6783007, 6785912, 6784008]  IsPos = [-1.4999, -2.4884, -3.4988]
# Wave = 0.4962  CalPath /beamlines/bl04/projects/cycle2025-II/20250340211-lsimonelli/DATA/Align/Si_Pos1_25keV_f00001.cal
# Date = 2025-09-25_02:59:59 Dt = 4.8000  Bin = 0.0060  <imon> = 6784309 +/- 1205 (Min/Max) 6783007 / 6785912
# icurr 252.5157  mocoIn 1.7223E-05  mocoOut 0.8076  i15 7.10454e+06  imon 6.78431e+06  i7 5.0000  iEMpd_timer 4.8000  iEMpd_1 3.5042E-08  iEMpd_2 7.9100E-08  iEMpd_3 1.6545E-08  iEMpd_4 4.6853E-08  iEMhp_timer 4.8000  iEMhp_1 4.9327E-06  iEMhp_2 -2.4419E-08  iEMhp_3 -2.4580E-08  iEMhp_4 -2.1215E-08
#      9776
 1.7416  70594  265.797
 1.9396  46549.5  216.109
 2.1376  33349.6  182.921
 2.3356  29878.4  172.776
 2.5336  27868.6  167.451
 2.7316  26281.1  162.702
 2.9296  25432.4  160.223
 3.1276  24556.7  156.99
 3.3256  24588.2  156.747
 3.5236  26159.6  161.48
 3.7216  24000.9  155.935
 3.9196  23363.3  153.076
 4.1176  23333.7  152.746
 4.3156  24637  157.113
 4.5136  26819.4  162.897
 4.7116  27846.3  167.141
 4.9096  27401.6  165.227
 5.1076  26936.3  164.405
 5.3056  27341.3  165.36
 5.5036  27128  164.603
 5.7016  27560.1  165.88
 5.8996  28005.8  166.423
 6.0976  28890.1  170.488
 6.2956  29486  171.561
 6.4936  30266.8  172.996
 6.6916  30628.3  175.042
 6.8896  31235.3  176.625
 7.0876  32398.6  180.623
 7.2856  32215.7  179.16
 7.4836  32873.2  180.305
 7.6816  33417.9  182.334
 7.8796  34950  186.45
 8.0776  36608.6  191.82
 8.2756  38501.5  195.297
 8.4736  39179.7  196.813
 8.6716  38504.1  195.75
 8.8696  38244.3  195.584
 9.0676  37791.4  193.784
 9.2656  36591.6  191.378
 9.4636  35989.4  188.191
 9.6616  35400.7  187.43
 9.8596  34245.6  183.789
 10.0576  32379.7  179.378
 10.2556  31299.8  176.811
 10.4536  30067  172.894
 10.6516  29207.7  170.603
 10.8496  28389.8  167.612
 11.0476  27705  165.598
 11.2456  27112.3  164.356
 11.4436  27402.2  164.39
 11.6416  27283.9  164.403
 11.8396  25402.5  158.837
 12.0376  25417.9  158.522
 12.2356  24970.1  157.513
 12.4336  24725.8  156.292
 12.6316  24428.5  155.62
 12.8296  24855.6  156.607
 13.0276  25259.9  158.059
 13.2256  25299.2  158.556
 13.4236  25421.1  158.699
 13.6216  25054.7  157.564
 13.8196  25207.4  157.812
 14.0176  24691.4  156.476
 14.2156  24163.5  153.825
 14.4136  23053.4  151.642
 14.6116  22809.3  150.034
 14.8096  22175.5  147.92
 15.0076  20861.1  147.314
 15.2056  20676.1  142.42
 15.4036  19645.3  139.656
 15.6016  19119.7  136.859
 15.7996  18530.6  135.019
 15.9976  17960.7  135.909
 16.1956  17416.8  131.691
 16.3936  17334.7  130.54
 16.5916  16814.2  129.203
 16.7896  16887.1  129.543
 16.9876  16655.7  130.121
 17.1856  16431.7  127.591
 17.3836  15986.2  125.743
 17.5816  15522.9  124.408
 17.7796  15258.2  123.275
 17.9776  15204.8  123.863
 18.1756  15228.3  122.641
 18.3736  14957.6  122.065
 18.5716  14834.2  121.31
 18.7696  14953.4  121.361
 18.9676  14609.3  119.762
 19.1656  14466.3  119.741
 19.3636  14387.5  119.611
 19.5616  14325  119.529
 19.7596  14401.5  119.243
 19.9576  14726.1  120.635
 20.1556  15113  122.751
 20.3536  14061.5  117.773
 20.5516  13932.7  117.685
 20.7496  13537.9  115.95
 20.9476  13372.3  114.988
 21.1456  13543.1  116.047
 21.3436  13339.8  115.13
 21.5416  13223.2  114.624
 21.7396  13169.8  114.232
 21.9376  13101.2  113.703
 22.1356  13101.2  113.823
 22.3336  13067.8  113.971
 22.5316  13031.4  113.898
 22.7296  13136.1  113.716
 22.9276  13013.6  113.868
 23.1256  13139  113.885
 23.3236  13195.7  114.711
 23.5216  13005.9  113.533
 23.7196  12770.8  112.438
 23.9176  12720.9  111.973
 24.1156  12564.7  111.767
 24.3136  12193.8  110.899
 24.5116  12233.7  110.6
 24.7096  11779  108.342
 24.9076  11617.8  107.626
 25.1056  11464.5  107.38
 25.3036  11387.3  106.521
 25.5016  11257.2  105.945
 25.6996  11302.2  105.734
 25.8976  11259.3  105.977
 26.0956  11234.9  105.883
 26.2936  11305  105.847
 26.4916  11353.3  105.96
 26.6896  11050  104.829
 26.8876  10928.2  104.105
 27.0856  10937.8  104.2
 27.2836  10690.5  102.91
 27.4816  10621.4  102.506
 27.6796  10563.2  102.608
 27.8776  10451.1  101.92
 28.0756  10411.8  102.014
 28.2736  10337.7  101.228
 28.4716  10146.9  100.34
 28.6696  10233.4  100.614
 28.8676  10137.2  100.488
 29.0656  9967.55  99.6263
 29.2636  10036.1  99.751
 29.4616  9969.64  99.6086
 29.6596  10018  99.4084
 29.8576  9707.94  98.5485
 30.0556  9872.97  99.2619
 30.2536  9837.29  98.8668
 30.4516  9749.36  98.0861
 30.6496  9728.64  97.7046
 30.8476  9786.43  98.4457
 31.0456  9583.96  97.3826
 31.2436  9546.64  96.4519
 31.4416  9444.99  96.1076
 31.6396  9506.97  96.4689
 31.8376  9492.11  95.9379
 32.0356  9478.5  96.4428
 32.2336  9290.84  94.8696
 32.4316  9221.14  94.9196
 32.6296  9142.42  94.3498
 32.8276  9255.33  94.7046
 33.0256  9198.35  94.4926
 33.2236  9154.26  94.4101
 33.4216  9248.02  94.5775
 33.6196  9164.92  94.4456
 33.8176  8980.49  93.6599
 34.0156  9118.18  93.9711
 34.2136  8927.76  93.0376
 34.4116  8876.19  92.9191
 34.6096  8824.82  92.5269
 34.8076  8829.34  92.9681
 35.0056  8904.39  93.0457
 35.2036  8725.95  92.3125
 35.4016  8773.45  92.4913
 35.5996  8716.47  92.2257
 35.7976  8552.7  91.6321
 35.9956  8741.01  92.2749
 36.1936  8619.57  91.5007
 36.3916  8549.03  91.3014
 36.5896  8365.2  91.2824
 36.7876  8501.2  91.4259
 36.9856  8399.79  90.9061
 37.1836  8440.75  90.2183
 37.3816  8527.19  91.052
 37.5796  8324.06  91.7041
 37.7776  8313.95  90.0104
 37.9756  8161.92  89.0598
 38.1736  8500.21  91.09
 38.3716  8383.89  90.7386
 38.5696  8218.09  90.2178
 38.7676  8056.63  88.8293
 38.9656  8102.16  88.7095
 39.1636  8072.37  88.8157
 39.3616  8150.7  89.1748
 39.5596  8063.24  89.5491
 39.7576  8029.53  88.7351
 39.9556  8135.99  88.9589
 40.1536  8290.75  90.0061
 40.3516  8239.93  89.7383
 40.5496  8175.78  89.6525
 40.7476  8201.58  89.798
 40.9456  8309.24  90.1324
 41.1436  8224.72  89.3897
 41.3416  8058.46  88.8164
 41.5396  8030.28  88.4667
 41.7376  8104.33  89.1407
 41.9356  8060.6  88.7647
 42.1336  8101.51  89.1409
 42.3316  8002.19  88.7895
 42.5296  8031.64  88.464
 42.7276  8052.71  88.8237
 42.9256  8106.55  88.9862
 43.1236  7931.97  88.1336
 43.3216  7981.02  88.1547
 43.5196  7837.27  87.418
 43.7176  7851.79  87.8954
 43.9156  7665.89  86.7494
 44.1136  7789.02  87.0002
 44.3116  7831.84  87.2558
 44.5096  7578.84  86.1393
 44.7076  7823.47  87.4472
 44.9056  7730.36  86.7995
 45.1036  7693.81  86.2186
 45.3016  7483.27  85.5286
 45.4996  7468.71  85.3852
 45.6976  7417.56  85.2652
 45.8956  7561.81  85.9007
 46.0936  7461.91  85.3395
 46.2916  7460.56  85.3073
 46.4896  7427.53  85.1528
 46.6876  7382.25  85.6074
 46.8856  7397.56  84.9518
 47.0836  7319.42  84.749
 47.2816  7292.47  84.4693
 47.4796  7242.19  84.2769
 47.6776  7209.23  85.0345
 47.8756  7288.48  84.6772
 48.0736  7308.06  85.2531
 48.2716  7099.37  83.8435
 48.4696  7191.74  83.9765
 48.6676  7136.8  84.244
 48.8656  7137  83.967
 49.0636  7217.1  84.3889
 49.2616  6913.6  82.6247
 49.4596  6999.23  82.7056
 49.6576  7095.53  83.501
 49.8556  7018.52  83.0653
 50.0536  6929.61  82.9831
 50.2516  7001.28  83.549
 50.4496  6952.32  82.9035
 50.6476  7039.35  83.101
 50.8456  6885.96  82.2803
 51.0436  6858.07  82.5542
 51.2416  6855.74  82.2149
 51.4396  6709.96  81.7295
 51.6376  6708.88  81.5487
 51.8356  6672.16  80.9576
 52.0336  6531.59  80.6104
 52.2316  6615.06  81.4741
 52.4296  6678.45  81.5448
 52.6276  6661.94  81.555
 52.8256  6716.25  81.4514
 53.0236  6561.06  81.1458
 53.2216  6536.43  81.0269
 53.4196  6399.6  80.1002
 53.6176  6588.31  81.7539
 53.8156  6460.13  80.6269
 54.0136  6463.38  80.8285
 54.2116  6442.02  80.353
 54.4096  6483.02  80.6568
 54.6076  6283.88  79.7555
 54.8056  6298.24  79.6313
 55.0036  6403  80.6826
 55.2016  6384.78  80.1139
 55.3996  6316.64  79.6595
 55.5976  6363.82  80.1468
 55.7956  6350.65  79.8787
 55.9936  6347.1  79.9931
 56.1916  6302.02  79.7233
 56.3896  6352.53  80.033
 56.5876  6303.58  80.2791
 56.7856  6249.65  79.4154
 56.9836  6210.44  78.9528
 57.1816  6272.09  79.7241
 57.3796  6344.8  79.9739
 57.5776  6285.15  79.5343
 57.7756  6210.06  79.6957
 57.9736  6195.92  79.2728
 58.1716  6267.23  79.9769
 58.3696  6271.05  79.7416
 58.5676  6225.9  78.9304
 58.7656  6284.65  79.9827
 58.9636  6262.13  79.8744
 59.1616  6424.79  81.0284
 59.3596  6428.8  80.3024
 59.5576  6429.74  80.3715
 59.7556  6292.3  79.9348
 59.9536  6350.05  80.1971
 60.1516  6286.9  80.6634
 60.1996  0.0000000E+00  0.0000000E+00

File: 17_Da_f00125.xye
# /beamlines/bl04/projects/cycle2025-II/20250340211-lsimonelli/DATA/IS17_D/17_Da_f00125.xye : mythproc.py merge -s 0.006 -l 0.5 -f /beamlines/bl04/inhouse/ff/FlatField/ff_20Nov2024rod8mm60s_17keV.raw -b True -c true -o xye /beamlines/bl04/projects/cycle2025-II/20250340211-lsimonelli/DATA/IS17_D/17_Da_00125.dat
# IsMon = [6768858, 6772979, 6774298]  IsPos = [-1.4999, -2.4884, -3.4988]
# Wave = 0.4962  CalPath /beamlines/bl04/projects/cycle2025-II/20250340211-lsimonelli/DATA/Align/Si_Pos1_25keV_f00001.cal
# Date = 2025-09-25_04:25:14 Dt = 4.8000  Bin = 0.0060  <imon> = 6772045 +/- 2317 (Min/Max) 6768858 / 6774298
# icurr 251.3830  mocoIn 1.7143E-05  mocoOut 0.8045  i15 7.08932e+06  imon 6.77204e+06  i7 5.6667  iEMpd_timer 4.8000  iEMpd_1 3.6739E-08  iEMpd_2 7.9653E-08  iEMpd_3 1.7067E-08  iEMpd_4 4.9450E-08  iEMhp_timer 4.8000  iEMhp_1 4.9107E-06  iEMhp_2 -2.5318E-08  iEMhp_3 -2.5698E-08  iEMhp_4 -2.2339E-08
#      9776
 1.7416  70735.7  266.101
 1.9396  46200  215.329
 2.1376  32755.3  181.309
 2.3356  29353.9  171.276
 2.5336  27308.5  165.783
 2.7316  25632.1  160.703
 2.9296  24676.2  157.843
 3.1276  24211.5  155.903
 3.3256  23876.8  154.472
 3.5236  25770.1  160.284
 3.7216  23453.8  154.147
 3.9196  22930.7  151.652
 4.1176  23047  151.808
 4.3156  24332.9  156.14
 4.5136  26643  162.364
 4.7116  27610.2  166.428
 4.9096  26919.9  163.772
 5.1076  26798.5  163.988
 5.3056  27058.2  164.497
 5.5036  27006.9  164.235
 5.7016  27366.2  165.297
 5.8996  27875.5  166.042
 6.0976  28644.7  169.771
 6.2956  29143.9  170.559
 6.4936  29809.6  171.678
 6.6916  30246  173.949
 6.8896  30949.9  175.822
 7.0876  32080.7  179.735
 7.2856  31949.7  178.418
 7.4836  32443.3  179.12
 7.6816  33191.2  181.712
 7.8796  34654.3  185.648
 8.0776  36148.9  190.599
 8.2756  38194.5  194.503
 8.4736  38687.9  195.565
 8.6716  38066.1  194.629
 8.8696  38413.8  196.03
 9.0676  37134.6  192.091
 9.2656  36376.3  190.806
 9.4636  36038.9  188.306
 9.6616  35415.3  187.453
 9.8596  33884  182.83
 10.0576  32160.8  178.791
 10.2556  31131.6  176.356
 10.4536  29943.8  172.557
 10.6516  29366.2  171.067
 10.8496  28534.8  168.038
 11.0476  27903.1  166.195
 11.2456  27226  164.699
 11.4436  27458.4  164.555
 11.6416  26832  163.038
 11.8396  25304.5  158.536
 12.0376  25192.6  157.81
 12.2356  24715.5  156.715
 12.4336  24607.1  155.917
 12.6316  24384.6  155.488
 12.8296  24711.2  156.15
 13.0276  25162.8  157.743
 13.2256  25140.3  158.053
 13.4236  24977.1  157.31
 13.6216  24806.5  156.791
 13.8196  24813.8  156.575
 14.0176  24570.7  156.091
 14.2156  23818.2  152.728
 14.4136  22656.5  150.335
 14.6116  22383.9  148.628
 14.8096  21911.1  147.031
 15.0076  20637.5  146.544
 15.2056  20139.1  140.548
 15.4036  19251.8  138.24
 15.6016  19253.3  137.328
 15.7996  18417.5  134.588
 15.9976  17731.4  135.04
 16.1956  17269.8  131.131
 16.3936  17006.6  129.295
 16.5916  16712.7  128.809
 16.7896  16746.4  129.001
 16.9876  16635.2  130.055
 17.1856  16336.2  127.225
 17.3836  15784.2  124.965
 17.5816  15333.4  123.656
 17.7796  15201.8  123.057
 17.9776  15145.1  123.619
 18.1756  15266  122.798
 18.3736  15017.9  122.311
 18.5716  14774.5  121.068
 18.7696  14776.9  120.645
 18.9676  14491.3  119.281
 19.1656  14291  119.007
 19.3636  14452  119.884
 19.5616  14297.1  119.411
 19.7596  14390.1  119.201
 19.9576  14922.6  121.436
 20.1556  14475.7  120.13
 20.3536  13955.3  117.328
 20.5516  13650.9  116.494
 20.7496  13479.9  115.702
 20.9476  13201.2  114.255
 21.1456  13465.9  115.714
 21.3436  13166.6  114.377
 21.5416  13172.9  114.407
 21.7396  13004.5  113.514
 21.9376  13098.9  113.692
 22.1356  13067.4  113.682
 22.3336  13082.3  114.034
 22.5316  13071.8  114.076
 22.7296  13053  113.342
 22.9276  12890.4  113.324
 23.1256  13128.3  113.822
 23.3236  12710.3  112.58
 23.5216  12892.7  113.034
 23.7196  12614.9  111.751
 23.9176  12665.6  111.737
 24.1156  12435.8  111.19
 24.3136  12088.1  110.428
 24.5116  12107.8  110.037
 24.7096  11908.7  108.947
 24.9076  11523.5  107.199
 25.1056  11356.4  106.883
 25.3036  11396.4  106.565
 25.5016  11330.1  106.291
 25.6996  11396  106.176
 25.8976  11239.4  105.885
 26.0956  11255  105.973
 26.2936  11338.3  106.009
 26.4916  11202  105.248
 26.6896  10960.7  104.408
 26.8876  10812  103.551
 27.0856  10830.5  103.684
 27.2836  10634.2  102.635
 27.4816  10575.1  102.285
 27.6796  10384.2  101.736
 27.8776  10437.4  101.86
 28.0756  10407.4  101.989
 28.2736  10238.3  100.744
 28.4716  10138.9  100.302
 28.6696  10228  100.588
 28.8676  10033.3  99.9712
 29.0656  9885.55  99.214
 29.2636  9955.17  99.36
 29.4616  9877.3  99.1375
 29.6596  9882.89  98.7289
 29.8576  9666.45  98.3285
 30.0556  9748.85  98.618
 30.2536  9753.04  98.4374
 30.4516  9685.25  97.7584
 30.6496  9728.26  97.7011
 30.8476  9602.22  97.5117
 31.0456  9509.38  97.0033
 31.2436  9423.47  95.8316
 31.4416  9386.29  95.8202
 31.6396  9366.75  95.7682
 31.8376  9444.55  95.7019
 32.0356  9308.83  95.5774
 32.2336  9243.45  94.638
 32.4316  9195.35  94.7875
 32.6296  9188.07  94.5823
 32.8276  9242.82  94.6372
 33.0256  9093.2  93.9481
 33.2236  9130.12  94.2896
 33.4216  9252.2  94.5981
 33.6196  9072.92  93.9729
 33.8176  8873.08  93.0958
 34.0156  9008.98  93.4195
 34.2136  8925.64  93.0297
 34.4116  8875.68  92.9137
 34.6096  8780.78  92.3
 34.8076  8660.82  92.0655
 35.0056  8629.11  91.5966
 35.2036  8646.06  91.8924
 35.4016  8616.59  91.6594
 35.5996  8579.54  91.4994
 35.7976  8556.51  91.6519
 35.9956  8606.52  91.5652
 36.1936  8550.88  91.1368
 36.3916  8460.86  90.8318
 36.5896  8384.47  91.4001
 36.7876  8373.39  90.7297
 36.9856  8277.22  90.2303
 37.1836  8334.71  89.6436
 37.3816  8381.58  90.262
 37.5796  8378.49  92.0046
 37.7776  8192.06  89.3505
 37.9756  8205.36  89.3056
 38.1736  8217.56  89.5618
 38.3716  8280.41  90.1815
 38.5696  8156.85  89.8866
 38.7676  7964.39  88.3266
 38.9656  7996.96  88.1416
 39.1636  8088.48  88.9112
 39.3616  8037.06  88.5549
 39.5596  8037.98  89.4004
 39.7576  8009.61  88.6286
 39.9556  8031.13  88.3725
 40.1536  8240.12  89.7325
 40.3516  8139.42  89.1836
 40.5496  8133.07  89.4214
 40.7476  8223.24  89.9252
 40.9456  8220.2  89.6502
 41.1436  8208  89.3031
 41.3416  8075.02  88.9085
 41.5396  8090.69  88.8011
 41.7376  8099.33  89.115
 41.9356  8001.44  88.4355
 42.1336  8022.01  88.7025
 42.3316  7967.22  88.5912
 42.5296  8085.22  88.7574
 42.7276  7952.82  88.272
 42.9256  8008.57  88.4489
 43.1236  7929.61  88.1201
 43.3216  7839.47  87.3671
 43.5196  7870.54  87.6068
 43.7176  7970.15  88.5567
 43.9156  7673.61  86.7974
 44.1136  7766.4  86.8618
 44.3116  7756.13  86.8242
 44.5096  7687.1  86.7475
 44.7076  7672.59  86.5937
 44.9056  7591.43  86.0137
 45.1036  7518.71  85.2291
 45.3016  7458.35  85.3842
 45.4996  7468.83  85.3845
 45.6976  7386.01  85.0768
 45.8956  7553.4  85.861
 46.0936  7544.02  85.8145
 46.2916  7408.25  85.0173
 46.4896  7326.98  84.5767
 46.6876  7461.72  86.0756
 46.8856  7308.76  84.4353
 47.0836  7345.48  84.9005
 47.2816  7212.18  84.0031
 47.4796  7229.13  84.2093
 47.6776  7154.43  84.7219
 47.8756  7182.41  84.0579
 48.0736  7121.54  84.1602
 48.2716  6997.51  83.2381
 48.4696  7252.08  84.3364
 48.6676  7089.25  83.9646
 48.8656  7179.11  84.212
 49.0636  7142.87  83.9442
 49.2616  6978.56  83.0098
 49.4596  6892.95  82.08
 49.6576  6914.5  82.4266
 49.8556  6966.14  82.7546
 50.0536  6937.91  83.0271
 50.2516  6903.51  82.9552
 50.4496  6855.1  82.3239
 50.6476  6884.74  82.1845
 50.8456  6911.64  82.4297
 51.0436  6706.88  81.6329
 51.2416  6720.28  81.3845
 51.4396  6645.77  81.3319
 51.6376  6646.94  81.1675
 51.8356  6735.6  81.3396
 52.0336  6544.5  80.6863
 52.2316  6654.37  81.7155
 52.4296  6521.15  80.5787
 52.6276  6501.02  80.5706
 52.8256  6646.99  81.035
 53.0236  6430  80.3384
 53.2216  6476.26  80.6624
 53.4196  6402.4  80.125
 53.6176  6346.31  80.2477
 53.8156  6388.86  80.18
 54.0136  6397.04  80.4051
 54.2116  6445.47  80.3764
 54.4096  6488.83  80.6941
 54.6076  6345.1  80.1364
 54.8056  6342.25  79.911
 55.0036  6244.23  79.6818
 55.2016  6264.13  79.3602
 55.3996  6338.39  79.793
 55.5976  6347.49  80.0358
 55.7956  6340.1  79.81
 55.9936  6240.78  79.321
 56.1916  6274.73  79.5492
 56.3896  6251.45  79.3915
 56.5876  6224.98  79.7769
 56.7856  6232.68  79.3082
 56.9836  6257.82  79.2583
 57.1816  6257.45  79.6326
 57.3796  6271.79  79.5169
 57.5776  6225.74  79.1558
 57.7756  6103.16  79.0075
 57.9736  6181.01  79.1789
 58.1716  6226.07  79.7095
 58.3696  6148.02  78.9563
 58.5676  6256.31  79.1214
 58.7656  6172.12  79.2523
 58.9636  6219.88  79.5982
 59.1616  6310.79  80.3075
 59.3596  6374.11  79.9467
 59.5576  6239.25  79.157
 59.7556  6127.49  78.8661
 59.9536  6273.63  79.698
 60.1516  6247.83  80.3971
 60.1996  0.0000000E+00  0.0000000E+00