Folder: echemistpy/docs/examples/XRD/IS17_D/Data/IS17_D (part 12)

File: 17_Da_f00093.xye
# /beamlines/bl04/projects/cycle2025-II/20250340211-lsimonelli/DATA/IS17_D/17_Da_f00093.xye : mythproc.py merge -s 0.006 -l 0.5 -f /beamlines/bl04/inhouse/ff/FlatField/ff_20Nov2024rod8mm60s_17keV.raw -b True -c true -o xye /beamlines/bl04/projects/cycle2025-II/20250340211-lsimonelli/DATA/IS17_D/17_Da_00093.dat
# IsMon = [6759805, 6763620, 6764620]  IsPos = [-1.4999, -2.4884, -3.4989]
# Wave = 0.4962  CalPath /beamlines/bl04/projects/cycle2025-II/20250340211-lsimonelli/DATA/Align/Si_Pos1_25keV_f00001.cal
# Date = 2025-09-24_19:29:15 Dt = 4.8000  Bin = 0.0060  <imon> = 6762682 +/- 2075 (Min/Max) 6759805 / 6764620
# icurr 250.3571  mocoIn 1.7068E-05  mocoOut 0.8014  i15 7.08445e+06  imon 6.76268e+06  i7 3.6667  iEMpd_timer 4.8000  iEMpd_1 3.5684E-08  iEMpd_2 7.8533E-08  iEMpd_3 1.5693E-08  iEMpd_4 4.8669E-08  iEMhp_timer 4.8000  iEMhp_1 4.8892E-06  iEMhp_2 -2.5104E-08  iEMhp_3 -2.4835E-08  iEMhp_4 -2.0927E-08
#      9776
 1.7416  69498.7  263.758
 1.9396  45601.3  213.926
 2.1376  32216.7  179.808
 2.3356  28848.8  169.793
 2.5336  27092.4  165.122
 2.7316  25422.3  160.034
 2.9296  24360.1  156.826
 3.1276  23706.3  154.265
 3.3256  23539.5  153.378
 3.5236  25188.3  158.463
 3.7216  23128.6  153.07
 3.9196  22819.2  151.278
 4.1176  22632.7  150.437
 4.3156  23931.8  154.845
 4.5136  26340.1  161.437
 4.7116  27466.7  165.998
 4.9096  26822.8  163.476
 5.1076  26516.5  163.123
 5.3056  26794.5  163.694
 5.5036  26733.5  163.403
 5.7016  26982.5  164.134
 5.8996  27859.7  165.989
 6.0976  28538.1  169.452
 6.2956  28969.5  170.047
 6.4936  29362.4  170.397
 6.6916  29817  172.711
 6.8896  30565.9  174.718
 7.0876  31486.6  178.064
 7.2856  31415.7  176.922
 7.4836  31719.2  177.112
 7.6816  32634.8  180.183
 7.8796  33945.2  183.736
 8.0776  35147.4  187.941
 8.2756  37209.4  191.98
 8.4736  37868.6  193.482
 8.6716  37127.8  192.217
 8.8696  36956.2  192.264
 9.0676  35927.3  188.938
 9.2656  35002.9  187.177
 9.4636  34412.8  183.998
 9.6616  33963  183.572
 9.8596  32761.5  179.777
 10.0576  31004.8  175.548
 10.2556  29864.9  172.725
 10.4536  29012.6  169.851
 10.6516  28474.9  168.461
 10.8496  27578.8  165.198
 11.0476  26870  163.087
 11.2456  26144.3  161.393
 11.4436  26403.1  161.365
 11.6416  26246.4  161.246
 11.8396  24543  156.134
 12.0376  24451.5  155.471
 12.2356  23986.9  154.39
 12.4336  23940  153.784
 12.6316  23526.1  152.726
 12.8296  23777.3  153.172
 13.0276  24358.8  155.208
 13.2256  24329.6  155.488
 13.4236  24251.9  155.003
 13.6216  24284.7  155.135
 13.8196  24336.3  155.061
 14.0176  23812.3  153.569
 14.2156  23191.5  150.701
 14.4136  22378.6  149.405
 14.6116  22150.1  147.85
 14.8096  21282.4  144.904
 15.0076  20108.7  144.652
 15.2056  19777.5  139.283
 15.4036  18877.9  136.908
 15.6016  18761.8  135.563
 15.7996  18213.3  133.845
 15.9976  17325.4  134.09
 16.1956  16921.8  129.803
 16.3936  16487.9  127.309
 16.5916  16183  126.749
 16.7896  16261.7  127.12
 16.9876  16012  127.596
 17.1856  15929.1  125.633
 17.3836  15360  123.277
 17.5816  14837.2  121.64
 17.7796  14841.2  121.586
 17.9776  14731.9  121.92
 18.1756  14894.3  121.29
 18.3736  14764.3  121.277
 18.5716  14530.9  120.063
 18.7696  14365.4  118.952
 18.9676  14044.7  117.426
 19.1656  14034.3  117.929
 19.3636  14092.5  118.38
 19.5616  13692.2  116.857
 19.7596  13974.5  117.468
 19.9576  14219.3  118.541
 20.1556  14297.6  119.388
 20.3536  13577.1  115.727
 20.5516  13347.8  115.196
 20.7496  13123.8  114.163
 20.9476  13007.5  113.413
 21.1456  13161  114.397
 21.3436  13053.6  113.887
 21.5416  12764.8  112.621
 21.7396  12700  112.184
 21.9376  12648.7  111.717
 22.1356  12767.6  112.363
 22.3336  12624.1  112.021
 22.5316  12486.5  111.488
 22.7296  12517.1  110.993
 22.9276  12602.2  112.048
 23.1256  12818  112.479
 23.3236  12547.1  111.834
 23.5216  12379.7  110.763
 23.7196  12358.2  110.617
 23.9176  12332.7  110.263
 24.1156  12019.8  109.315
 24.3136  11753.3  108.886
 24.5116  11699.3  108.166
 24.7096  11384.8  106.521
 24.9076  11336.9  106.326
 25.1056  11131.4  105.816
 25.3036  11012.3  104.753
 25.5016  11079.8  105.104
 25.6996  11068.3  104.64
 25.8976  10882  104.188
 26.0956  10929.7  104.43
 26.2936  10955.4  104.197
 26.4916  10933.3  103.981
 26.6896  10692.1  103.111
 26.8876  10597  102.518
 27.0856  10570.7  102.431
 27.2836  10361.3  101.314
 27.4816  10265.3  100.771
 27.6796  10076  100.216
 27.8776  10113.5  100.264
 28.0756  10156.6  100.752
 28.2736  10127.4  100.196
 28.4716  9798.91  98.598
 28.6696  9927.05  99.0947
 28.8676  9725.01  98.4211
 29.0656  9681.8  98.1883
 29.2636  9668.7  97.9192
 29.4616  9520.57  97.3343
 29.6596  9617.08  97.3932
 29.8576  9606.84  98.0278
 30.0556  9495.1  97.3299
 30.2536  9668.88  98.0123
 30.4516  9343.47  96.0206
 30.6496  9396.44  96.0201
 30.8476  9358.41  96.2631
 31.0456  9298.17  95.9207
 31.2436  9217.9  94.7767
 31.4416  9258.73  95.1661
 31.6396  9139.74  94.5991
 31.8376  9272.28  94.8292
 32.0356  8995.64  93.9628
 32.2336  9067.93  93.7298
 32.4316  8943.77  93.4809
 32.6296  8961.13  93.4099
 32.8276  8957.09  93.1595
 33.0256  8858.57  92.7223
 33.2236  8807.64  92.61
 33.4216  8970.84  93.143
 33.6196  8764.09  92.3583
 33.8176  8827.87  92.855
 34.0156  8668.3  91.6403
 34.2136  8772.03  92.2259
 34.4116  8597.44  91.4447
 34.6096  8569.08  91.1803
 34.8076  8497.28  91.2055
 35.0056  8556.25  91.21
 35.2036  8414.37  90.658
 35.4016  8354.31  90.2552
 35.5996  8425.9  90.6756
 35.7976  8346.92  90.5279
 35.9956  8305.29  89.9357
 36.1936  8286.02  89.7159
 36.3916  8268.37  89.7932
 36.5896  8174.77  90.244
 36.7876  8275.44  90.1995
 36.9856  8093.62  89.2278
 37.1836  8094.79  88.3446
 37.3816  8323.38  89.9489
 37.5796  7986.21  89.8262
 37.7776  7987.99  88.2269
 37.9756  7883.87  87.5341
 38.1736  8117.15  89.0129
 38.3716  8091.83  89.1453
 38.5696  7940.4  88.6791
 38.7676  7728.83  87.0096
 38.9656  7915.74  87.6932
 39.1636  7730.73  86.9252
 39.3616  7910.95  87.8604
 39.5596  7758.73  87.8522
 39.7576  7810.02  87.5134
 39.9556  7915.58  87.742
 40.1536  7983.67  88.3236
 40.3516  7951.82  88.158
 40.5496  7908.75  88.1806
 40.7476  7916.11  88.2172
 40.9456  8028.48  88.5952
 41.1436  7954.02  87.9118
 41.3416  7918.22  88.0417
 41.5396  7849.55  87.4654
 41.7376  7941.08  88.2435
 41.9356  7819.07  87.4242
 42.1336  7735.65  87.1065
 42.3316  7712.11  87.1637
 42.5296  7732.33  86.8009
 42.7276  7803.53  87.4369
 42.9256  7751.31  87.0123
 43.1236  7708.18  86.8807
 43.3216  7768.45  86.9709
 43.5196  7576.33  85.9487
 43.7176  7600.65  86.4786
 43.9156  7514.74  85.8883
 44.1136  7385.64  84.7111
 44.3116  7546.85  85.6434
 44.5096  7512.69  85.7592
 44.7076  7545.16  85.8737
 44.9056  7493.45  85.4566
 45.1036  7252.84  83.7069
 45.3016  7306.18  84.5103
 45.4996  7345.9  84.6787
 45.6976  7187.66  83.9311
 45.8956  7379.55  84.8661
 46.0936  7275.62  84.2722
 46.2916  7316.43  84.4888
 46.4896  7364.16  84.7847
 46.6876  7251.02  84.849
 46.8856  7150.86  83.5175
 47.0836  7105.34  83.5041
 47.2816  7031.18  82.9441
 47.4796  7111.35  83.5179
 47.6776  6974.83  83.6475
 47.8756  6989.98  82.9253
 48.0736  7011.25  83.5037
 48.2716  6783.79  81.9467
 48.4696  6920.4  82.3743
 48.6676  6898.4  82.8215
 48.8656  6866  82.3713
 49.0636  6936.18  82.7336
 49.2616  6738.16  81.5656
 49.4596  6803.88  81.5441
 49.6576  6773.48  81.5785
 49.8556  6797.43  81.7462
 50.0536  6752.17  81.9097
 50.2516  6744.44  81.9938
 50.4496  6631.97  80.9689
 50.6476  6736.48  81.2968
 50.8456  6684.6  81.0604
 51.0436  6563.63  80.7568
 51.2416  6514.84  80.1334
 51.4396  6374.66  79.6599
 51.6376  6479.55  80.1358
 51.8356  6435.18  79.501
 52.0336  6447.06  80.0824
 52.2316  6313.91  79.5939
 52.4296  6456.51  80.1728
 52.6276  6383.57  79.8439
 52.8256  6469.67  79.9352
 53.0236  6278.84  79.3873
 53.2216  6314.3  79.646
 53.4196  6342.94  79.7485
 53.6176  6149.84  78.9923
 53.8156  6194.16  78.9571
 54.0136  6184.13  79.0539
 54.2116  6176.38  78.6776
 54.4096  6231.41  79.0735
 54.6076  6233.15  79.4317
 54.8056  6191.82  78.9571
 55.0036  6070.36  78.5698
 55.2016  6171.85  78.8227
 55.3996  6146.6  78.5751
 55.5976  6055.5  78.1798
 55.7956  6050.24  77.9684
 55.9936  6109.54  78.4844
 56.1916  6021.39  77.9328
 56.3896  6114.86  78.5214
 56.5876  6047.59  78.6358
 56.7856  6142.6  78.7393
 56.9836  6019.56  77.7286
 57.1816  6030.74  78.0766
 57.3796  6039.03  78.0249
 57.5776  6080.02  78.2094
 57.7756  5992.05  78.2869
 57.9736  5989.43  77.9458
 58.1716  6007.4  78.2991
 58.3696  6024.73  78.1593
 58.5676  6095.67  78.0893
 58.7656  6001.23  78.1564
 58.9636  6082.55  78.7164
 59.1616  6035.62  78.5342
 59.3596  6265.03  79.2647
 59.5576  6146.98  78.5714
 59.7556  5934.8  77.6179
 59.9536  6189.03  79.1606
 60.1516  6109.98  79.5071
 60.1996  6167.71  83.0605

File: 17_Da_f00095.xye
# /beamlines/bl04/projects/cycle2025-II/20250340211-lsimonelli/DATA/IS17_D/17_Da_f00095.xye : mythproc.py merge -s 0.006 -l 0.5 -f /beamlines/bl04/inhouse/ff/FlatField/ff_20Nov2024rod8mm60s_17keV.raw -b True -c true -o xye /beamlines/bl04/projects/cycle2025-II/20250340211-lsimonelli/DATA/IS17_D/17_Da_00095.dat
# IsMon = [6782135, 6783755, 6779182]  IsPos = [-1.4999, -2.4884, -3.4988]
# Wave = 0.4962  CalPath /beamlines/bl04/projects/cycle2025-II/20250340211-lsimonelli/DATA/Align/Si_Pos1_25keV_f00001.cal
# Date = 2025-09-24_20:02:33 Dt = 4.8000  Bin = 0.0060  <imon> = 6781691 +/- 1893 (Min/Max) 6779182 / 6783755
# icurr 251.9781  mocoIn 1.7189E-05  mocoOut 0.8069  i15 7.1006e+06  imon 6.78169e+06  i7 4.0000  iEMpd_timer 4.8000  iEMpd_1 3.4872E-08  iEMpd_2 7.9177E-08  iEMpd_3 1.6903E-08  iEMpd_4 4.7369E-08  iEMhp_timer 4.8000  iEMhp_1 4.9234E-06  iEMhp_2 -2.5392E-08  iEMhp_3 -2.3669E-08  iEMhp_4 -2.0984E-08
#      9776
 1.7416  70422  265.439
 1.9396  46002.7  214.818
 2.1376  32674.7  181.037
 2.3356  29446.3  171.5
 2.5336  27694.4  166.905
 2.7316  25789.5  161.16
 2.9296  24798.5  158.205
 3.1276  24102.2  155.517
 3.3256  23738.1  154.002
 3.5236  25661.8  159.927
 3.7216  23401.5  153.975
 3.9196  23023.6  151.956
 4.1176  22855.6  151.168
 4.3156  24159.8  155.596
 4.5136  26462.5  161.809
 4.7116  27544.4  166.228
 4.9096  26866.9  163.61
 5.1076  26814.7  164.026
 5.3056  27141.9  164.764
 5.5036  26820.9  163.668
 5.7016  27265.3  164.992
 5.8996  27820.6  165.866
 6.0976  28517.3  169.38
 6.2956  29108.6  170.462
 6.4936  29568.2  170.992
 6.6916  29955.2  173.111
 6.8896  30999.7  175.96
 7.0876  31862.6  179.123
 7.2856  31589.2  177.407
 7.4836  31893.8  177.595
 7.6816  32403.6  179.544
 7.8796  33977  183.852
 8.0776  35402.7  188.646
 8.2756  37428  192.582
 8.4736  37881.4  193.541
 8.6716  37177.5  192.355
 8.8696  37063.3  192.556
 9.0676  36204.1  189.674
 9.2656  35260.2  187.869
 9.4636  35026  185.645
 9.6616  34080.2  183.909
 9.8596  32725.2  179.647
 10.0576  31165  175.977
 10.2556  30073.5  173.297
 10.4536  29167.2  170.274
 10.6516  28470.2  168.424
 10.8496  27761.3  165.746
 11.0476  26873.9  163.096
 11.2456  26322.1  161.94
 11.4436  26420.9  161.412
 11.6416  26527.9  162.111
 11.8396  24581.4  156.247
 12.0376  24610.5  155.99
 12.2356  24164.7  154.957
 12.4336  24204.3  154.628
 12.6316  23676.9  153.207
 12.8296  24031.1  153.989
 13.0276  24604.7  155.995
 13.2256  24495.2  156.013
 13.4236  24450.1  155.64
 13.6216  24383.9  155.439
 13.8196  24425.3  155.345
 14.0176  24005.9  154.292
 14.2156  23550.3  151.86
 14.4136  22501.8  149.811
 14.6116  22088.8  147.644
 14.8096  21556.1  145.847
 15.0076  20205.7  144.991
 15.2056  19958.5  139.933
 15.4036  19014.1  137.417
 15.6016  18728.8  135.462
 15.7996  18400.2  134.555
 15.9976  17594.7  134.531
 16.1956  16953.9  129.931
 16.3936  16702.3  128.136
 16.5916  16276.5  127.126
 16.7896  16438.2  127.812
 16.9876  16326.1  128.829
 17.1856  16041.7  126.059
 17.3836  15555.8  124.036
 17.5816  15094.3  122.662
 17.7796  14985.5  122.159
 17.9776  14751.4  122.005
 18.1756  14916.9  121.388
 18.3736  14781.7  121.343
 18.5716  14383.5  119.454
 18.7696  14443.5  119.274
 18.9676  14107.7  117.683
 19.1656  14036.9  117.952
 19.3636  14060.1  118.237
 19.5616  13925.8  117.849
 19.7596  14010.6  117.608
 19.9576  14343  119.054
 20.1556  14586.9  120.598
 20.3536  13814.1  116.73
 20.5516  13454.9  115.652
 20.7496  13085  113.991
 20.9476  13054.6  113.606
 21.1456  13134.3  114.285
 21.3436  13071.5  113.967
 21.5416  13009.9  113.693
 21.7396  12769.2  112.479
 21.9376  12852.8  112.629
 22.1356  12760.8  112.336
 22.3336  12729.5  112.494
 22.5316  12721.3  112.554
 22.7296  12777.8  112.151
 22.9276  12645  112.252
 23.1256  12790.1  112.378
 23.3236  12605  112.11
 23.5216  12583.3  111.675
 23.7196  12715.7  112.209
 23.9176  12419.9  110.64
 24.1156  12234.9  110.291
 24.3136  11710.8  108.671
 24.5116  11938.4  109.248
 24.7096  11689  107.918
 24.9076  11321.8  106.237
 25.1056  11030.8  105.321
 25.3036  11119.4  105.257
 25.5016  11055.2  104.987
 25.6996  11059  104.593
 25.8976  10938.5  104.453
 26.0956  11030.6  104.921
 26.2936  11034.7  104.561
 26.4916  10904.9  103.843
 26.6896  10706.7  103.191
 26.8876  10518.9  102.132
 27.0856  10615.9  102.655
 27.2836  10325.8  101.136
 27.4816  10309.7  100.995
 27.6796  10264.1  101.146
 27.8776  10147.1  100.421
 28.0756  10190.4  100.928
 28.2736  10163.9  100.377
 28.4716  10019.7  99.7099
 28.6696  9828.34  98.598
 28.8676  9734.49  98.4733
 29.0656  9801.7  98.7905
 29.2636  9725.41  98.1972
 29.4616  9631.48  97.9113
 29.6596  9690.93  97.7785
 29.8576  9474.99  97.3658
 30.0556  9535.55  97.5594
 30.2536  9671.74  98.0404
 30.4516  9394.79  96.2881
 30.6496  9475.64  96.4265
 30.8476  9518.13  97.0843
 31.0456  9372.22  96.2941
 31.2436  9320.24  95.2999
 31.4416  9078.87  94.2214
 31.6396  9339.98  95.6142
 31.8376  9191.55  94.4017
 32.0356  9032.54  94.134
 32.2336  9005.88  93.3919
 32.4316  9034.93  93.9557
 32.6296  9080.48  94.0264
 32.8276  9101.38  93.905
 33.0256  8764.81  92.235
 33.2236  8973.72  93.4719
 33.4216  8928.16  92.9368
 33.6196  8802.49  92.5599
 33.8176  8874.43  93.1038
 34.0156  8812.86  92.3875
 34.2136  8685.25  91.7618
 34.4116  8639.74  91.6779
 34.6096  8653.47  91.6201
 34.8076  8524.29  91.3428
 35.0056  8479.73  90.8008
 35.2036  8498.66  91.0924
 35.4016  8491.44  90.9941
 35.5996  8367.2  90.3613
 35.7976  8374.51  90.674
 35.9956  8472.77  90.8469
 36.1936  8378.7  90.2097
 36.3916  8230.01  89.5767
 36.5896  8237.18  90.5817
 36.7876  8311.82  90.4071
 36.9856  8185.56  89.7467
 37.1836  8232.6  89.1044
 37.3816  8320.62  89.9505
 37.5796  8161.71  90.7954
 37.7776  7965.15  88.0991
 37.9756  8083.59  88.6315
 38.1736  8039.41  88.5863
 38.3716  8055.9  88.9496
 38.5696  8020.82  89.1291
 38.7676  7940.86  88.1791
 38.9656  7826.71  87.1844
 39.1636  7845.49  87.5497
 39.3616  7939.58  88.0009
 39.5596  7793.34  88.0401
 39.7576  7778.62  87.3379
 39.9556  7871.45  87.4978
 40.1536  8005.38  88.4483
 40.3516  7879.52  87.753
 40.5496  8034.41  88.8683
 40.7476  7928.91  88.2994
 40.9456  7990.34  88.3889
 41.1436  8000.77  88.1609
 41.3416  7891.42  87.893
 41.5396  7829.5  87.3596
 41.7376  7867.04  87.831
 41.9356  7897.6  87.859
 42.1336  7870.31  87.854
 42.3316  7790.39  87.6076
 42.5296  7932.17  87.9146
 42.7276  7831.67  87.5922
 42.9256  7819.08  87.3918
 43.1236  7733.44  87.0229
 43.3216  7813.56  87.2235
 43.5196  7577.86  85.957
 43.7176  7600  86.4722
 43.9156  7456.24  85.5705
 44.1136  7626.73  86.0941
 44.3116  7594.66  85.9333
 44.5096  7489.45  85.6363
 44.7076  7531.82  85.8089
 44.9056  7390.57  84.8741
 45.1036  7298.06  83.9734
 45.3016  7376.82  84.9217
 45.4996  7325.96  84.5666
 45.6976  7297.06  84.5779
 45.8956  7394.21  84.9382
 46.0936  7301.93  84.4057
 46.2916  7387.12  84.8803
 46.4896  7327.98  84.5713
 46.6876  7256.21  84.8596
 46.8856  7157.99  83.5636
 47.0836  7201.07  84.0627
 47.2816  7132  83.5327
 47.4796  7111.52  83.516
 47.6776  7043.89  84.0622
 47.8756  7080.23  83.4488
 48.0736  7042.42  83.6923
 48.2716  6924.2  82.8034
 48.4696  6902.52  82.2737
 48.6676  7000.5  83.4389
 48.8656  6959.14  82.9257
 49.0636  6960.98  82.8736
 49.2616  6777.35  81.8077
 49.4596  6874.49  81.9545
 49.6576  6873.55  82.1819
 49.8556  6795.61  81.7353
 50.0536  6861.5  82.5704
 50.2516  6773.58  82.1731
 50.4496  6698.5  81.3763
 50.6476  6721.54  81.2026
 50.8456  6725.15  81.3059
 51.0436  6601.01  80.9964
 51.2416  6624.87  80.8234
 51.4396  6530.34  80.6266
 51.6376  6481.59  80.151
 51.8356  6546.37  80.1871
 52.0336  6565.83  80.8195
 52.2316  6364.77  79.9177
 52.4296  6522.95  80.6062
 52.6276  6461.31  80.3384
 52.8256  6387.25  79.4284
 53.0236  6349  79.8171
 53.2216  6351.37  79.8658
 53.4196  6154  78.5409
 53.6176  6249.63  79.6201
 53.8156  6385.42  80.1412
 54.0136  6314.29  79.8944
 54.2116  6220.84  78.9558
 54.4096  6214.45  78.9648
 54.6076  6217.03  79.3327
 54.8056  6074.85  78.2108
 55.0036  6160.67  79.1489
 55.2016  6160.68  78.6963
 55.3996  6213.38  79.0008
 55.5976  6139.97  78.7212
 55.7956  6097.97  78.272
 55.9936  6138.4  78.6646
 56.1916  6147.58  78.7321
 56.3896  6110.52  78.4954
 56.5876  6082.75  78.8621
 56.7856  6054.41  78.1668
 56.9836  6016.21  77.7043
 57.1816  6094.52  78.5863
 57.3796  6126.22  78.5888
 57.5776  6137.54  78.5908
 57.7756  5998.51  78.3253
 57.9736  6011.86  78.0933
 58.1716  6033.17  78.4691
 58.3696  6002.07  78.019
 58.5676  6136.41  78.3622
 58.7656  6020.74  78.2872
 58.9636  6123.85  78.9928
 59.1616  6217.11  79.7195
 59.3596  6225.26  79.0387
 59.5576  6139.07  78.5466
 59.7556  6108.15  78.7692
 59.9536  6314.59  79.9858
 60.1516  6228.05  80.298
 60.1996  0.0000000E+00  0.0000000E+00