Folder: echemistpy/docs/examples/XRD/IS17_D/Data/IS17_D (part 9)

File: 17_Da_f00052.xye
# /beamlines/bl04/projects/cycle2025-II/20250340211-lsimonelli/DATA/IS17_D/17_Da_f00052.xye : mythproc.py merge -s 0.006 -l 0.5 -f /beamlines/bl04/inhouse/ff/FlatField/ff_20Nov2024rod8mm60s_17keV.raw -b True -c true -o xye /beamlines/bl04/projects/cycle2025-II/20250340211-lsimonelli/DATA/IS17_D/17_Da_00052.dat
# IsMon = [6784446, 6785599, 6786682]  IsPos = [-1.4999, -2.4885, -3.4988]
# Wave = 0.4962  CalPath /beamlines/bl04/projects/cycle2025-II/20250340211-lsimonelli/DATA/Align/Si_Pos1_25keV_f00001.cal
# Date = 2025-09-24_08:02:26 Dt = 4.8000  Bin = 0.0060  <imon> = 6785576 +/- 913 (Min/Max) 6784446 / 6786682
# icurr 251.9930  mocoIn 1.7205E-05  mocoOut 0.8062  i15 7.10156e+06  imon 6.78558e+06  i7 4.6667  iEMpd_timer 4.8000  iEMpd_1 3.5707E-08  iEMpd_2 7.9147E-08  iEMpd_3 1.8227E-08  iEMpd_4 4.8926E-08  iEMhp_timer 4.8000  iEMhp_1 4.9252E-06  iEMhp_2 -2.5145E-08  iEMhp_3 -2.4452E-08  iEMhp_4 -2.2494E-08
#      9776
 1.7416  71854.7  268.157
 1.9396  46977.9  217.102
 2.1376  33513  183.366
 2.3356  30297.2  173.98
 2.5336  28071.7  168.058
 2.7316  26560.6  163.581
 2.9296  25445.1  160.275
 3.1276  24888.1  158.049
 3.3256  24274.8  155.755
 3.5236  26337  162.185
 3.7216  23969.4  155.83
 3.9196  23300.4  152.868
 4.1176  23201  152.305
 4.3156  24615  157.045
 4.5136  26880.5  163.087
 4.7116  28035  167.697
 4.9096  27299.5  164.915
 5.1076  26972.1  164.513
 5.3056  27332.4  165.333
 5.5036  26865.7  163.892
 5.7016  27163.2  164.683
 5.8996  27989.7  166.377
 6.0976  28887.6  170.482
 6.2956  29468.4  171.51
 6.4936  30043.6  172.362
 6.6916  30631.6  175.052
 6.8896  31385.7  177.048
 7.0876  32339.4  180.456
 7.2856  32379.3  179.613
 7.4836  32828.6  180.183
 7.6816  33529.6  182.635
 7.8796  35022.9  186.65
 8.0776  36634  191.887
 8.2756  38437.1  195.132
 8.4736  39021.4  196.421
 8.6716  38425  195.558
 8.8696  38291  195.701
 9.0676  37402.2  192.769
 9.2656  36325  190.672
 9.4636  35747  187.531
 9.6616  35124.9  186.684
 9.8596  33863.3  182.77
 10.0576  31979.8  178.287
 10.2556  31072.6  176.173
 10.4536  29646.2  171.691
 10.6516  28672  169.04
 10.8496  28001.2  166.459
 11.0476  27238  164.152
 11.2456  26665.9  162.997
 11.4436  26568.7  161.865
 11.6416  27504.9  165.067
 11.8396  25317.5  158.571
 12.0376  25195.6  157.804
 12.2356  24626.7  156.467
 12.4336  24659.4  156.078
 12.6316  24249.9  155.051
 12.8296  24568.4  155.7
 13.0276  25056.3  157.418
 13.2256  25358.5  158.741
 13.4236  25052.6  157.546
 13.6216  25144.8  157.852
 13.8196  25046.8  157.308
 14.0176  24532.8  155.975
 14.2156  23970.3  153.213
 14.4136  22878.2  151.069
 14.6116  22694.9  149.657
 14.8096  21951.3  147.167
 15.0076  20654.7  146.599
 15.2056  20553.3  141.998
 15.4036  19592.5  139.482
 15.6016  19263.2  137.371
 15.7996  18558.1  135.116
 15.9976  17823.5  135.389
 16.1956  17233.8  130.987
 16.3936  16956.2  129.099
 16.5916  16805.7  129.164
 16.7896  16683.3  128.752
 16.9876  16581.4  129.842
 17.1856  16374.8  127.376
 17.3836  15806  125.049
 17.5816  15609.6  124.762
 17.7796  15386.7  123.8
 17.9776  14906.5  122.64
 18.1756  14906.7  121.344
 18.3736  14715.6  121.077
 18.5716  14559.1  120.181
 18.7696  14583.4  119.849
 18.9676  14227.2  118.186
 19.1656  14341.2  119.215
 19.3636  14223.5  118.938
 19.5616  14009.1  118.207
 19.7596  14255.9  118.639
 19.9576  14526.3  119.815
 20.1556  15213.8  123.159
 20.3536  14158.1  118.175
 20.5516  13821.2  117.22
 20.7496  13562.2  116.056
 20.9476  13454.9  115.347
 21.1456  13470.9  115.738
 21.3436  13233.9  114.667
 21.5416  13090.9  114.049
 21.7396  13034.4  113.651
 21.9376  13105.5  113.711
 22.1356  13065.4  113.672
 22.3336  13001.5  113.669
 22.5316  12816.3  112.964
 22.7296  12796.4  112.242
 22.9276  12981.1  113.727
 23.1256  13073.7  113.598
 23.3236  13022.1  113.939
 23.5216  12754.8  112.425
 23.7196  12800.1  112.57
 23.9176  12612.1  111.497
 24.1156  12472.4  111.349
 24.3136  12109.3  110.519
 24.5116  12146.9  110.211
 24.7096  11797.1  108.428
 24.9076  11638.9  107.725
 25.1056  11554  107.525
 25.3036  11371  106.447
 25.5016  11257  105.948
 25.6996  11202.3  105.268
 25.8976  11072.4  105.093
 26.0956  11217.8  105.801
 26.2936  11111.1  104.939
 26.4916  11302.5  105.716
 26.6896  10847.5  103.864
 26.8876  10772.5  103.356
 27.0856  10847.9  103.727
 27.2836  10683.2  102.865
 27.4816  10533.4  102.083
 27.6796  10447  102.041
 27.8776  10368.7  101.521
 28.0756  10346.7  101.695
 28.2736  10161.6  100.366
 28.4716  10087.3  100.046
 28.6696  10134.6  100.124
 28.8676  10004.6  99.8323
 29.0656  9869.29  99.1342
 29.2636  9898.27  98.9861
 29.4616  9720.21  98.3559
 29.6596  9866.62  98.6548
 29.8576  9698.52  98.5007
 30.0556  9769.3  98.7282
 30.2536  9779.01  98.5765
 30.4516  9624.28  97.4494
 30.6496  9721.55  97.6644
 30.8476  9755.91  98.2863
 31.0456  9525.72  97.0777
 31.2436  9479.19  96.1079
 31.4416  9251.47  95.1261
 31.6396  9566.68  96.7804
 31.8376  9413.01  95.5314
 32.0356  9341.67  95.7498
 32.2336  9150.26  94.153
 32.4316  9211.37  94.8729
 32.6296  9195.3  94.5561
 32.8276  9105.46  93.9268
 33.0256  9132.37  94.1492
 33.2236  8983.69  93.5288
 33.4216  9193.37  94.2961
 33.6196  9097.68  94.1014
 33.8176  8969.51  93.6035
 34.0156  9045.62  93.6108
 34.2136  8984.29  93.3289
 34.4116  8861.76  92.8477
 34.6096  8805.19  92.4295
 34.8076  8683.9  92.1984
 35.0056  8825.87  92.6336
 35.2036  8747.76  92.4282
 35.4016  8682.11  92.0095
 35.5996  8650.77  91.878
 35.7976  8602.68  91.9024
 35.9956  8655.73  91.8261
 36.1936  8510.17  90.9152
 36.3916  8507.21  91.0799
 36.5896  8534.64  92.6859
 36.7876  8421.05  90.9956
 36.9856  8279.73  90.2558
 37.1836  8400.14  90.0014
 37.3816  8374.83  90.2312
 37.5796  8257.25  91.3271
 37.7776  8226.98  89.5251
 37.9756  8160.13  89.0428
 38.1736  8261.04  89.7946
 38.3716  8167.92  89.5643
 38.5696  8141.48  89.7997
 38.7676  7921.06  88.0836
 38.9656  8047.15  88.4153
 39.1636  8001.87  88.3989
 39.3616  8041.33  88.577
 39.5596  8028.36  89.3589
 39.7576  7855.3  87.7641
 39.9556  8184.58  89.2207
 40.1536  8129.36  89.1256
 40.3516  8191.64  89.4813
 40.5496  8065.72  88.8371
 40.7476  8173.22  89.6406
 40.9456  8225.11  89.6745
 41.1436  8221.8  89.3728
 41.3416  8050.8  88.7738
 41.5396  8004.15  88.3284
 41.7376  7978.07  88.4474
 41.9356  8026.52  88.5752
 42.1336  8000.16  88.5779
 42.3316  8025.71  88.9205
 42.5296  7992.26  88.2445
 42.7276  8111.18  89.1458
 42.9256  7909.08  87.8973
 43.1236  7961.1  88.2956
 43.3216  7979.11  88.2498
 43.5196  7834.5  87.4029
 43.7176  7910.95  88.2263
 43.9156  7763.68  87.3057
 44.1136  7790.37  87.0062
 44.3116  7866.55  87.4393
 44.5096  7630.17  86.4335
 44.7076  7786.27  87.2395
 44.9056  7691.34  86.5767
 45.1036  7624.96  85.8249
 45.3016  7514.93  85.7008
 45.4996  7621.45  86.2491
 45.6976  7368.95  84.9801
 45.8956  7517.82  85.6575
 46.0936  7495.17  85.5282
 46.2916  7422.8  85.0981
 46.4896  7473.89  85.4251
 46.6876  7294.86  85.1038
 46.8856  7404.95  84.9964
 47.0836  7300.86  84.6414
 47.2816  7175.86  83.7948
 47.4796  7227.32  84.2011
 47.6776  7173.7  84.8319
 47.8756  7110.92  83.6343
 48.0736  7165.81  84.4145
 48.2716  7093.6  83.8029
 48.4696  7220.16  84.1413
 48.6676  7137.46  84.2423
 48.8656  7152.93  84.0502
 49.0636  7184.92  84.2006
 49.2616  6911.15  82.6128
 49.4596  6905.74  82.1519
 49.6576  7086.8  83.4433
 49.8556  7009.23  83.0078
 50.0536  6924.27  82.9475
 50.2516  6912.96  82.9915
 50.4496  6835.05  82.2001
 50.6476  6813.82  81.761
 50.8456  6923.6  82.505
 51.0436  6747.7  81.8877
 51.2416  6681.18  81.1596
 51.4396  6593.73  81.0209
 51.6376  6721.75  81.6246
 51.8356  6726.28  81.2859
 52.0336  6609.39  81.0829
 52.2316  6611.46  81.4455
 52.4296  6627.03  81.2347
 52.6276  6610.61  81.2495
 52.8256  6671.5  81.1736
 53.0236  6513.06  80.8531
 53.2216  6491.35  80.7492
 53.4196  6435.41  80.3245
 53.6176  6416.8  80.6877
 53.8156  6391.61  80.1959
 54.0136  6507.39  81.098
 54.2116  6367.17  79.8828
 54.4096  6455.54  80.4823
 54.6076  6401.97  80.5026
 54.8056  6378.67  80.143
 55.0036  6302.96  80.0586
 55.2016  6372.6  80.0421
 55.3996  6384.2  80.0823
 55.5976  6293.79  79.7073
 55.7956  6367.23  79.9805
 55.9936  6281.98  79.5787
 56.1916  6294.09  79.6688
 56.3896  6318.48  79.8213
 56.5876  6236.34  79.8525
 56.7856  6141.52  78.7313
 56.9836  6215.31  78.9828
 57.1816  6267.08  79.691
 57.3796  6287.92  79.6173
 57.5776  6236.92  79.224
 57.7756  6155.41  79.3419
 57.9736  6138.89  78.9066
 58.1716  6189.43  79.4793
 58.3696  6185.49  79.1988
 58.5676  6174.66  78.6062
 58.7656  6214.51  79.5282
 58.9636  6368.32  80.5495
 59.1616  6267.87  80.0411
 59.3596  6291.2  79.4351
 59.5576  6404.52  80.2054
 59.7556  6156.1  79.0567
 59.9536  6364.53  80.2801
 60.1516  6228.6  80.2801
 60.1996  0.0000000E+00  0.0000000E+00

File: 17_Da_f00056.xye
# /beamlines/bl04/projects/cycle2025-II/20250340211-lsimonelli/DATA/IS17_D/17_Da_f00056.xye : mythproc.py merge -s 0.006 -l 0.5 -f /beamlines/bl04/inhouse/ff/FlatField/ff_20Nov2024rod8mm60s_17keV.raw -b True -c true -o xye /beamlines/bl04/projects/cycle2025-II/20250340211-lsimonelli/DATA/IS17_D/17_Da_00056.dat
# IsMon = [6768046, 6765599, 6767579]  IsPos = [-1.4999, -2.4885, -3.4986]
# Wave = 0.4962  CalPath /beamlines/bl04/projects/cycle2025-II/20250340211-lsimonelli/DATA/Align/Si_Pos1_25keV_f00001.cal
# Date = 2025-09-24_09:08:26 Dt = 4.8000  Bin = 0.0060  <imon> = 6767075 +/- 1061 (Min/Max) 6765599 / 6768046
# icurr 250.6212  mocoIn 1.7097E-05  mocoOut 0.8024  i15 7.08565e+06  imon 6.76707e+06  i7 5.6667  iEMpd_timer 4.8000  iEMpd_1 3.4213E-08  iEMpd_2 7.7902E-08  iEMpd_3 1.6743E-08  iEMpd_4 4.7074E-08  iEMhp_timer 4.8000  iEMhp_1 4.8966E-06  iEMhp_2 -2.4841E-08  iEMhp_3 -2.4106E-08  iEMhp_4 -2.2714E-08
#      9776
 1.7416  71061  266.63
 1.9396  46169.6  215.201
 2.1376  32942.3  181.77
 2.3356  29282.9  171.016
 2.5336  27725  166.991
 2.7316  25813.3  161.254
 2.9296  24542.4  157.403
 3.1276  24166.8  155.736
 3.3256  23815  154.276
 3.5236  25719.7  160.278
 3.7216  23623.4  154.702
 3.9196  23106.9  152.231
 4.1176  23050.9  151.812
 4.3156  24253.3  155.887
 4.5136  26637.3  162.352
 4.7116  27759.6  166.881
 4.9096  27022.7  164.084
 5.1076  26685.1  163.628
 5.3056  27074.9  164.445
 5.5036  26630.8  163.107
 5.7016  27021.4  164.249
 5.8996  27788.1  165.781
 6.0976  28541.5  169.45
 6.2956  29178  170.666
 6.4936  29828.9  171.74
 6.6916  30054.7  173.394
 6.8896  30990.6  175.931
 7.0876  32033.8  179.605
 7.2856  31977.4  178.498
 7.4836  32299.2  178.725
 7.6816  33100.4  181.465
 7.8796  34545.5  185.385
 8.0776  36233.5  190.849
 8.2756  38107.9  194.305
 8.4736  38869.6  196.049
 8.6716  38180  194.951
 8.8696  37840.9  194.538
 9.0676  36998.3  191.716
 9.2656  35988.9  189.771
 9.4636  35669.6  187.322
 9.6616  35105.4  186.628
 9.8596  33474.9  181.713
 10.0576  31739.5  177.619
 10.2556  30757.7  175.28
 10.4536  29820.3  172.19
 10.6516  28827.5  169.49
 10.8496  28125.9  166.823
 11.0476  27363.5  164.534
 11.2456  26532.5  162.596
 11.4436  26995.8  163.159
 11.6416  27016.3  163.596
 11.8396  25126.6  157.966
 12.0376  25178.4  157.754
 12.2356  24495.1  156.051
 12.4336  24197.5  154.616
 12.6316  24040.2  154.373
 12.8296  24419  155.227
 13.0276  25066.6  157.453
 13.2256  25135.9  158.037
 13.4236  24907.1  157.084
 13.6216  24783.4  156.708
 13.8196  24666.4  156.109
 14.0176  24336  155.355
 14.2156  23901.7  152.996
 14.4136  22709.6  150.506
 14.6116  22398.4  148.676
 14.8096  21718.9  146.385
 15.0076  20624  146.505
 15.2056  20438.3  141.611
 15.4036  19261.7  138.31
 15.6016  18952.8  136.269
 15.7996  18433.2  134.668
 15.9976  17647.3  134.726
 16.1956  17077.5  130.387
 16.3936  16827.4  128.6
 16.5916  16464.2  127.835
 16.7896  16621.9  128.509
 16.9876  16495.8  129.505
 17.1856  16186.7  126.643
 17.3836  15731.4  124.753
 17.5816  15312.3  123.564
 17.7796  15060.7  122.478
 17.9776  14988.5  122.975
 18.1756  14932  121.446
 18.3736  14906.8  121.864
 18.5716  14464.5  119.789
 18.7696  14569.5  119.793
 18.9676  14286  118.423
 19.1656  14141.1  118.386
 19.3636  14125.2  118.527
 19.5616  13992.5  118.134
 19.7596  14108.7  118.021
 19.9576  14441  119.463
 20.1556  14803.2  121.49
 20.3536  13909.7  117.139
 20.5516  13671.3  116.58
 20.7496  13415.4  115.421
 20.9476  13160.7  114.069
 21.1456  13374.2  115.328
 21.3436  13089.2  114.042
 21.5416  13044.6  113.846
 21.7396  12957.5  113.306
 21.9376  12868.6  112.685
 22.1356  12877.7  112.739
 22.3336  13098.4  114.102
 22.5316  12874.8  113.234
 22.7296  12849.6  112.468
 22.9276  12767.4  112.8
 23.1256  12963.3  113.125
 23.3236  12849.5  113.179
 23.5216  12642.6  111.919
 23.7196  12537.3  111.405
 23.9176  12512.7  111.047
 24.1156  12376.6  110.916
 24.3136  12125.6  110.588
 24.5116  12000.9  109.544
 24.7096  11564.5  107.354
 24.9076  11496.3  107.056
 25.1056  11405.7  106.836
 25.3036  11295  106.093
 25.5016  11330.9  106.289
 25.6996  11190.4  105.213
 25.8976  11089.9  105.172
 26.0956  11108.2  105.283
 26.2936  11162.1  105.183
 26.4916  11156  105.028
 26.6896  10845.9  103.86
 26.8876  10660.7  102.82
 27.0856  10675.4  102.906
 27.2836  10588.3  102.577
 27.4816  10379.2  101.327
 27.6796  10426.3  101.938
 27.8776  10302.8  101.192
 28.0756  10209.5  101.023
 28.2736  10323.4  101.156
 28.4716  9907.06  99.1464
 28.6696  10019.8  99.5554
 28.8676  9873.29  99.1747
 29.0656  9837.05  98.9717
 29.2636  9871.77  98.8504
 29.4616  9713.74  98.3302
 29.6596  9718.09  97.9168
 29.8576  9568.87  97.8487
 30.0556  9666.57  98.2178
 30.2536  9773.01  98.5537
 30.4516  9495.23  96.7872
 30.6496  9623.94  97.165
 30.8476  9681.84  97.9054
 31.0456  9426.09  96.5623
 31.2436  9390.05  95.6446
 31.4416  9306.67  95.4009
 31.6396  9469.78  96.2854
 31.8376  9347.91  95.2083
 32.0356  9156.24  94.7941
 32.2336  9126.45  94.0254
 32.4316  9132.15  94.464
 32.6296  9061.8  93.8678
 32.8276  9102.95  93.9175
 33.0256  9078.81  93.8724
 33.2236  8940.49  93.2995
 33.4216  9027.77  93.4452
 33.6196  8969.51  93.4404
 33.8176  8916.87  93.3282
 34.0156  8893.16  92.8149
 34.2136  8841.99  92.587
 34.4116  8818.38  92.6184
 34.6096  8713.81  91.9395
 34.8076  8576.66  91.6291
 35.0056  8569.18  91.2776
 35.2036  8698.27  92.1689
 35.4016  8581.84  91.4805
 35.5996  8528.63  91.2292
 35.7976  8520.18  91.4619
 35.9956  8551.07  91.2654
 36.1936  8444.73  90.5645
 36.3916  8484.25  90.9565
 36.5896  8421.42  92.0665
 36.7876  8408.3  90.9317
 36.9856  8271.91  90.2211
 37.1836  8244.26  89.1689
 37.3816  8446.99  90.6269
 37.5796  8238.62  91.224
 37.7776  8094.99  88.8025
 37.9756  8161.3  89.0482
 38.1736  8188.91  89.3955
 38.3716  8156.05  89.4944
 38.5696  8182.08  90.0229
 38.7676  7853.81  87.7069
 38.9656  7950.48  87.8809
 39.1636  7992.9  88.3486
 39.3616  7973.65  88.2083
 39.5596  8001.07  89.208
 39.7576  7944.81  88.2682
 39.9556  7995.04  88.1866
 40.1536  8147.42  89.2215
 40.3516  8095.23  89.0346
 40.5496  8166.92  89.3938
 40.7476  8095.98  89.2244
 40.9456  8054.05  88.7369
 41.1436  8119.13  88.8098
 41.3416  7992.9  88.4613
 41.5396  8018.8  88.4092
 41.7376  7961.79  88.3585
 41.9356  7923.42  88.0042
 42.1336  8017.77  88.6721
 42.3316  7940.05  88.4467
 42.5296  7987.54  88.2152
 42.7276  7988.77  88.4701
 42.9256  7927.76  88.0014
 43.1236  7868.45  87.7802
 43.3216  7932.33  87.9913
 43.5196  7785.56  87.1301
 43.7176  7767.74  87.4261
 43.9156  7572.02  86.2321
 44.1136  7627.36  86.0953
 44.3116  7623.28  86.0902
 44.5096  7631.29  86.4463
 44.7076  7701.61  86.7703
 44.9056  7621.91  86.1787
 45.1036  7401.02  84.5509
 45.3016  7442.62  85.287
 45.4996  7507.47  85.5971
 45.6976  7356.05  84.907
 45.8956  7390.23  84.9258
 46.0936  7439.93  85.2083
 46.2916  7380.78  84.8552
 46.4896  7422.65  85.1179
 46.6876  7230.05  84.718
 46.8856  7190.32  83.8636
 47.0836  7295.36  84.6069
 47.2816  7252.6  84.244
 47.4796  7190.1  83.9804
 47.6776  7129.77  84.5713
 47.8756  7179.37  84.0408
 48.0736  7129.2  84.1819
 48.2716  7023.52  83.391
 48.4696  7094.65  83.4091
 48.6676  7030.17  83.6122
 48.8656  7074.26  83.61
 49.0636  7056  83.4323
 49.2616  6994.51  83.1188
 49.4596  6976.04  82.5614
 49.6576  6976.17  82.7809
 49.8556  6857.5  82.1058
 50.0536  6897.66  82.7896
 50.2516  6848.84  82.5995
 50.4496  6858.98  82.3492
 50.6476  6885.18  82.1895
 50.8456  6806.38  81.7914
 51.0436  6642.21  81.2457
 51.2416  6720.02  81.4016
 51.4396  6448.23  80.1239
 51.6376  6609.55  80.9431
 51.8356  6607.07  80.5666
 52.0336  6475.69  80.2516
 52.2316  6524.37  80.9045
 52.4296  6652.81  81.384
 52.6276  6520.94  80.6932
 52.8256  6614.68  80.8284
 53.0236  6392.19  80.097
 53.2216  6383.11  80.0714
 53.4196  6396.92  80.0842
 53.6176  6403.79  80.6037
 53.8156  6348.12  79.9248
 54.0136  6419.43  80.5507
 54.2116  6388.74  80.0149
 54.4096  6329.91  79.6982
 54.6076  6278.28  79.722
 54.8056  6244.65  79.2965
 55.0036  6346.62  80.3366
 55.2016  6344.88  79.8641
 55.3996  6297.24  79.5382
 55.5976  6276.76  79.5976
 55.7956  6348.72  79.8597
 55.9936  6242.55  79.3273
 56.1916  6247.55  79.3779
 56.3896  6214.19  79.1578
 56.5876  6196.85  79.6003
 56.7856  6243.24  79.3736
 56.9836  6123.86  78.3972
 57.1816  6264.98  79.6751
 57.3796  6256.41  79.3935
 57.5776  6319.86  79.7447
 57.7756  6118.9  79.1002
 57.9736  6134.77  78.8842
 58.1716  6115.82  79.0042
 58.3696  6202.18  79.3109
 58.5676  6247.14  79.0705
 58.7656  6214.92  79.5448
 58.9636  6202.39  79.4993
 59.1616  6217.06  79.7083
 59.3596  6206.13  78.8989
 59.5576  6326.46  79.7186
 59.7556  6201.94  79.354
 59.9536  6366.08  80.2935
 60.1516  6169.25  79.9002
 60.1996  0.0000000E+00  0.0000000E+00