Folder: echemistpy/docs/examples/XRD/IS17_D/Data/IS17_D (part 21)

File: 17_Db_f00025.xye
# /beamlines/bl04/projects/cycle2025-II/20250340211-lsimonelli/DATA/IS17_D/17_Db_f00025.xye : mythproc.py merge -s 0.006 -l 0.5 -f /beamlines/bl04/inhouse/ff/FlatField/ff_20Nov2024rod8mm60s_17keV.raw -b True -c true -o xye /beamlines/bl04/projects/cycle2025-II/20250340211-lsimonelli/DATA/IS17_D/17_Db_00025.dat
# IsMon = [6779412, 6780653, 6783226]  IsPos = [-1.5000, -2.4885, -3.4986]
# Wave = 0.4962  CalPath /beamlines/bl04/projects/cycle2025-II/20250340211-lsimonelli/DATA/Align/Si_Pos1_25keV_f00001.cal
# Date = 2025-09-24_00:39:38 Dt = 4.8000  Bin = 0.0060  <imon> = 6781097 +/- 1588 (Min/Max) 6779412 / 6783226
# icurr 252.6313  mocoIn 1.7237E-05  mocoOut 0.8084  i15 7.09981e+06  imon 6.7811e+06  i7 4.6667  iEMpd_timer 4.8000  iEMpd_1 3.5586E-08  iEMpd_2 7.7858E-08  iEMpd_3 1.7431E-08  iEMpd_4 4.7706E-08  iEMhp_timer 4.8000  iEMhp_1 4.9360E-06  iEMhp_2 -2.4226E-08  iEMhp_3 -2.3730E-08  iEMhp_4 -2.0595E-08
#      9776
 1.7416  70545.1  265.712
 1.9396  48543.8  220.702
 2.1376  34994.2  187.382
 2.3356  31488.3  177.374
 2.5336  29368.6  171.903
 2.7316  26681.5  163.96
 2.9296  25625.7  160.834
 3.1276  24975.8  158.332
 3.3256  24108.5  155.218
 3.5236  25764.2  160.415
 3.7216  23635.9  154.739
 3.9196  23354.6  153.014
 4.1176  23269.3  152.526
 4.3156  23957.1  154.925
 4.5136  26589.2  162.2
 4.7116  27516.8  166.143
 4.9096  27024.1  164.077
 5.1076  26556.9  163.238
 5.3056  27059.8  164.375
 5.5036  26428  162.481
 5.7016  27066.4  164.384
 5.8996  27510.3  164.957
 6.0976  28277  168.646
 6.2956  28287.1  168.026
 6.4936  29182.5  169.862
 6.6916  29461.9  171.663
 6.8896  29958.2  172.946
 7.0876  31255.1  177.317
 7.2856  30876.7  175.373
 7.4836  31016.3  175.126
 7.6816  31904.3  178.128
 7.8796  32481.4  179.735
 8.0776  34171.4  185.323
 8.2756  35704.3  188.064
 8.4736  36170.5  189.103
 8.6716  35330.8  187.517
 8.8696  36281.4  190.517
 9.0676  35603.7  188.052
 9.2656  34297.5  185.269
 9.4636  33298.5  181.03
 9.6616  32719.7  180.162
 9.8596  32020.2  177.699
 10.0576  30125  173.024
 10.2556  29315.1  171.124
 10.4536  28672.6  168.835
 10.6516  28069.3  167.266
 10.8496  26887.8  163.116
 11.0476  25811.3  159.788
 11.2456  25158.5  158.324
 11.4436  25601.8  158.892
 11.6416  25210.2  158.006
 11.8396  23933.6  154.163
 12.0376  23466.5  152.279
 12.2356  23099.4  151.535
 12.4336  23300.1  151.719
 12.6316  23077.4  151.255
 12.8296  23116.7  150.995
 13.0276  23313.4  151.84
 13.2256  23606  153.149
 13.4236  23495.9  152.571
 13.6216  23812.1  153.591
 13.8196  26112.2  160.254
 14.0176  22867.9  150.587
 14.2156  22472.4  148.332
 14.4136  21404.7  146.116
 14.6116  21254.6  144.82
 14.8096  20446.1  142.012
 15.0076  19678.4  143.165
 15.2056  18688.7  135.398
 15.4036  17637.7  132.343
 15.6016  17444.2  130.724
 15.7996  17115.3  129.75
 15.9976  17031.8  132.308
 16.1956  16560.6  128.366
 16.3936  16257.5  126.374
 16.5916  15930.8  125.745
 16.7896  15931.1  125.797
 16.9876  15760.1  126.559
 17.1856  15521.5  124.013
 17.3836  15267.4  122.904
 17.5816  14702.4  121.082
 17.7796  14684.1  120.925
 17.9776  14257.6  119.919
 18.1756  14594.4  120.086
 18.3736  14438.8  119.922
 18.5716  14109.3  118.306
 18.7696  13996.3  117.395
 18.9676  13757.3  116.193
 19.1656  13544.3  115.866
 19.3636  13411.2  115.491
 19.5616  13356.5  115.418
 19.7596  13734.5  116.448
 19.9576  13960.3  117.444
 20.1556  13547.7  116.207
 20.3536  13210.5  114.148
 20.5516  12897.7  113.228
 20.7496  12869.7  112.958
 20.9476  12889.5  112.893
 21.1456  12601.5  111.938
 21.3436  12542.8  111.629
 21.5416  12432.8  111.155
 21.7396  12148.2  109.718
 21.9376  12279.7  110.091
 22.1356  12294.7  110.302
 22.3336  12047.5  109.419
 22.5316  11899.2  108.85
 22.7296  12065.2  108.981
 22.9276  11901  108.894
 23.1256  12039.7  109.012
 23.3236  12342.1  110.945
 23.5216  12326.8  110.509
 23.7196  12224.6  110.23
 23.9176  12368.5  110.405
 24.1156  11932.8  108.889
 24.3136  11448.3  107.46
 24.5116  11791.2  108.582
 24.7096  11330.1  106.244
 24.9076  11157.8  105.476
 25.1056  10987.5  104.852
 25.3036  10767.5  103.581
 25.5016  10675.1  103.168
 25.6996  10697.6  102.864
 25.8976  10823.1  103.899
 26.0956  10524.5  102.462
 26.2936  10500.4  102.011
 26.4916  10800.5  103.32
 26.6896  10421.5  101.783
 26.8876  10404.8  101.569
 27.0856  10237.7  100.776
 27.2836  10056.3  99.9584
 27.4816  9882.21  98.8818
 27.6796  9913.86  99.3964
 27.8776  10194.1  100.641
 28.0756  9852.45  99.228
 28.2736  9859.73  98.8563
 28.4716  9602.27  97.6053
 28.6696  9648.17  97.6941
 28.8676  9474.23  97.1512
 29.0656  9449.13  96.9944
 29.2636  9499.61  96.9754
 29.4616  9174.38  95.552
 29.6596  9179.64  95.1563
 29.8576  8913.74  94.4303
 30.0556  8970.04  94.6053
 30.2536  9147.59  95.3382
 30.4516  9367.52  96.1207
 30.6496  9150.15  94.7426
 30.8476  9220.82  95.5476
 31.0456  9151.51  95.1502
 31.2436  9258.11  94.9661
 31.4416  9066.61  94.1665
 31.6396  9015.72  93.9522
 31.8376  9085.17  93.8294
 32.0356  9120.53  94.5831
 32.2336  8937.4  93.0564
 32.4316  8776.31  92.6009
 32.6296  8739.04  92.1707
 32.8276  8633.01  91.4748
 33.0256  8620.2  91.4658
 33.2236  8766.17  92.3768
 33.4216  8503.9  90.6749
 33.6196  8597.15  91.4723
 33.8176  8541.52  91.3382
 34.0156  8444.51  90.4492
 34.2136  8574.42  91.1648
 34.4116  8231.86  89.4879
 34.6096  8372.42  90.1258
 34.8076  8262.38  89.9443
 35.0056  8254.08  89.5731
 35.2036  8429.48  90.7459
 35.4016  8123.2  88.9891
 35.5996  8179.27  89.3389
 35.7976  8201.32  89.7131
 35.9956  8270.6  89.7443
 36.1936  8219.42  89.328
 36.3916  7958.54  88.0947
 36.5896  8015.75  89.8412
 36.7876  7871.95  87.9762
 36.9856  7711.96  87.0956
 37.1836  7769.22  86.5521
 37.3816  7847.22  87.342
 37.5796  7845.92  89.0365
 37.7776  7875.59  87.5935
 37.9756  7980.36  88.0637
 38.1736  7977.47  88.2305
 38.3716  7950.54  88.3627
 38.5696  7637.73  86.951
 38.7676  7686.51  86.7679
 38.9656  7698.58  86.4645
 39.1636  7801.29  87.2941
 39.3616  7677.07  86.5534
 39.5596  7574.34  86.7735
 39.7576  7591.03  86.2836
 39.9556  7625.75  86.127
 40.1536  7837.89  87.5067
 40.3516  7719.71  86.9341
 40.5496  7681.99  86.6759
 40.7476  7791.72  87.5123
 40.9456  7852.15  87.6117
 41.1436  7909.97  87.6596
 41.3416  7638.19  86.4694
 41.5396  7615.16  86.1511
 41.7376  7578.81  86.204
 41.9356  7642.2  86.4196
 42.1336  7771.65  87.2904
 42.3316  7525.01  86.0933
 42.5296  7598.89  86.0354
 42.7276  7626.41  86.4329
 42.9256  7694.81  86.6936
 43.1236  7563.32  86.0455
 43.3216  7614.85  86.1956
 43.5196  7564.2  85.8722
 43.7176  7397.53  85.3104
 43.9156  7323.28  84.793
 44.1136  7399.76  84.7968
 44.3116  7415.05  84.8966
 44.5096  7269.26  84.3599
 44.7076  7417.51  85.1479
 44.9056  7560.05  85.8339
 45.1036  7383.73  84.4516
 45.3016  7357.15  84.7999
 45.4996  7302.29  84.4119
 45.6976  7246.12  84.2652
 45.8956  7378.26  84.8559
 46.0936  7366.08  84.5428
 46.2916  7452.34  85.2599
 46.4896  7440.45  85.2147
 46.6876  7206.83  84.5803
 46.8856  7163.31  83.7075
 47.0836  7138.29  83.698
 47.2816  7144.05  83.6101
 47.4796  7193.29  84.0043
 47.6776  7085.03  84.2995
 47.8756  7118.42  83.6841
 48.0736  7228.91  84.7643
 48.2716  7138.27  84.0659
 48.4696  7220.19  84.1366
 48.6676  7097.3  84.0028
 48.8656  7214  84.4207
 49.0636  7280.12  84.7521
 49.2616  7085.03  83.6416
 49.4596  7169.76  83.7061
 49.6576  7069.99  83.3452
 49.8556  7120.82  83.6651
 50.0536  7142.59  84.2458
 50.2516  7097.8  84.0861
 50.4496  7117.42  83.8842
 50.6476  7064.55  83.2492
 50.8456  7182.97  84.0226
 51.0436  6923.31  82.9445
 51.2416  6832.15  82.0692
 51.4396  6689.07  81.6054
 51.6376  6892.58  82.6607
 51.8356  6830.34  81.912
 52.0336  6840.99  82.4715
 52.2316  6861.83  82.9725
 52.4296  6789.82  82.2319
 52.6276  6737.04  82.0196
 52.8256  6790.6  81.9097
 53.0236  6926.26  83.3702
 53.2216  6806.68  82.6663
 53.4196  6843.71  82.8207
 53.6176  6763.72  82.8355
 53.8156  6730.06  82.3012
 54.0136  6441.7  80.6771
 54.2116  6611.41  81.3812
 54.4096  6479.91  80.622
 54.6076  6399.31  80.4693
 54.8056  6361.83  80.0196
 55.0036  6537.15  81.3719
 55.2016  6313.75  79.5512
 55.3996  6209.59  78.9567
 55.5976  6364.84  80.1372
 55.7956  6292.57  79.4928
 55.9936  6468.69  80.7185
 56.1916  6201.4  79.0591
 56.3896  6094.89  78.3562
 56.5876  6095.66  78.923
 56.7856  6091.75  78.4101
 56.9836  6241.43  79.1233
 57.1816  6259.24  79.5994
 57.3796  6055.41  78.0924
 57.5776  6171.59  78.7369
 57.7756  5974.87  78.1486
 57.9736  6045.97  78.2963
 58.1716  5971.26  78.0502
 58.3696  5769.02  76.4887
 58.5676  5798  76.1498
 58.7656  5814.61  76.9345
 58.9636  5733.41  76.4218
 59.1616  5884.7  77.556
 59.3596  5848.64  76.5831
 59.5576  5778.62  76.1798
 59.7556  5929.72  77.5836
 59.9536  5725.93  76.1404
 60.1516  5652.9  76.4744
 60.1996  0.0000000E+00  0.0000000E+00

File: 17_Db_f00029.xye
# /beamlines/bl04/projects/cycle2025-II/20250340211-lsimonelli/DATA/IS17_D/17_Db_f00029.xye : mythproc.py merge -s 0.006 -l 0.5 -f /beamlines/bl04/inhouse/ff/FlatField/ff_20Nov2024rod8mm60s_17keV.raw -b True -c true -o xye /beamlines/bl04/projects/cycle2025-II/20250340211-lsimonelli/DATA/IS17_D/17_Db_00029.dat
# IsMon = [6767926, 6760626, 6764130]  IsPos = [-1.4999, -2.4885, -3.4986]
# Wave = 0.4962  CalPath /beamlines/bl04/projects/cycle2025-II/20250340211-lsimonelli/DATA/Align/Si_Pos1_25keV_f00001.cal
# Date = 2025-09-24_01:45:41 Dt = 4.8000  Bin = 0.0060  <imon> = 6764227 +/- 2981 (Min/Max) 6760626 / 6767926
# icurr 251.1802  mocoIn 1.7135E-05  mocoOut 0.8038  i15 7.08452e+06  imon 6.76423e+06  i7 5.6667  iEMpd_timer 4.8000  iEMpd_1 3.6250E-08  iEMpd_2 7.7613E-08  iEMpd_3 1.7681E-08  iEMpd_4 4.8570E-08  iEMhp_timer 4.8000  iEMhp_1 4.9079E-06  iEMhp_2 -2.4540E-08  iEMhp_3 -2.3389E-08  iEMhp_4 -2.3293E-08
#      9776
 1.7416  70442  265.413
 1.9396  47903.8  219.159
 2.1376  34889.6  187.027
 2.3356  30887.9  175.605
 2.5336  29037.3  170.863
 2.7316  26652.2  163.856
 2.9296  25493  160.409
 3.1276  24805.1  157.758
 3.3256  24206.6  155.533
 3.5236  25997.1  161.106
 3.7216  23759.7  155.14
 3.9196  23079.1  152.113
 4.1176  23170.7  152.191
 4.3156  23941.1  154.881
 4.5136  26523.6  162.01
 4.7116  27635.1  166.49
 4.9096  26964.8  163.892
 5.1076  26695  163.646
 5.3056  26967.8  164.095
 5.5036  26295.4  162.08
 5.7016  26846.6  163.715
 5.8996  27503.1  164.936
 6.0976  28155.1  168.274
 6.2956  28217.5  167.836
 6.4936  29075.9  169.559
 6.6916  29243.3  171.017
 6.8896  30118.4  173.403
 7.0876  30842.9  176.221
 7.2856  30586.7  174.556
 7.4836  30945.3  174.931
 7.6816  31485  176.958
 7.8796  32750  180.51
 8.0776  34040.3  185.004
 8.2756  35432.9  187.385
 8.4736  36218.5  189.269
 8.6716  35191.5  187.186
 8.8696  36058.6  189.909
 9.0676  35255  187.122
 9.2656  34086.4  184.677
 9.4636  33151.3  180.623
 9.6616  32361.4  179.172
 9.8596  31856.5  177.234
 10.0576  29772.3  172.008
 10.2556  29014.3  170.228
 10.4536  28545.6  168.449
 10.6516  27642.7  165.979
 10.8496  26548.7  162.074
 11.0476  25484  158.783
 11.2456  25032  157.935
 11.4436  25122.9  157.404
 11.6416  25168.9  157.89
 11.8396  23956.1  154.217
 12.0376  23302.5  151.754
 12.2356  23076.5  151.461
 12.4336  23095.5  151.038
 12.6316  22988  150.942
 12.8296  23150.7  151.096
 13.0276  23294.2  151.795
 13.2256  23514.2  152.857
 13.4236  23388.4  152.22
 13.6216  23846.5  153.68
 13.8196  25869  159.53
 14.0176  22805.4  150.394
 14.2156  22349.1  147.92
 14.4136  21434  146.219
 14.6116  21056.5  144.133
 14.8096  20316.2  141.562
 15.0076  19473.3  142.405
 15.2056  18611  135.145
 15.4036  17754.1  132.798
 15.6016  17431.6  130.703
 15.7996  16816.6  128.632
 15.9976  16706.4  131.039
 16.1956  16403.5  127.756
 16.3936  16055.2  125.585
 16.5916  15685.8  124.763
 16.7896  15870.6  125.553
 16.9876  15686.4  126.27
 17.1856  15335.9  123.278
 17.3836  15014  121.874
 17.5816  14742.4  121.237
 17.7796  14561.9  120.43
 17.9776  14155.2  119.489
 18.1756  14437.4  119.442
 18.3736  14051.3  118.304
 18.5716  13925.1  117.532
 18.7696  13867.6  116.861
 18.9676  13652.4  115.746
 19.1656  13307.5  114.855
 19.3636  13286.9  114.96
 19.5616  13218.6  114.824
 19.7596  13516.1  115.512
 19.9576  13754.5  116.567
 20.1556  13594.5  116.414
 20.3536  13110.8  113.722
 20.5516  12850.8  113.021
 20.7496  12503.6  111.426
 20.9476  12713.8  112.102
 21.1456  12554  111.738
 21.3436  12358.2  110.801
 21.5416  12357.9  110.819
 21.7396  12148.5  109.722
 21.9376  11914.7  108.441
 22.1356  12086.3  109.227
 22.3336  11994.2  109.194
 22.5316  12068.2  109.642
 22.7296  12127  109.289
 22.9276  11663.3  107.823
 23.1256  11963.3  108.686
 23.3236  12311  110.792
 23.5216  12156.5  109.734
 23.7196  12058.4  109.248
 23.9176  12169.8  109.49
 24.1156  11907.8  108.771
 24.3136  11582.3  108.075
 24.5116  11536.1  107.39
 24.7096  11164.8  105.462
 24.9076  11064.4  105.011
 25.1056  10850  104.203
 25.3036  10583.5  102.696
 25.5016  10662.6  103.109
 25.6996  10639.5  102.59
 25.8976  10628.1  102.946
 26.0956  10542.5  102.554
 26.2936  10537.1  102.201
 26.4916  10741.8  103.04
 26.6896  10382.1  101.596
 26.8876  10360.6  101.347
 27.0856  10134.6  100.273
 27.2836  9954  99.4532
 27.4816  9845.96  98.696
 27.6796  9866.72  99.1505
 27.8776  10095.7  100.145
 28.0756  9726.6  98.6038
 28.2736  9783.46  98.4717
 28.4716  9578.93  97.4906
 28.6696  9550.04  97.1865
 28.8676  9392.19  96.7297
 29.0656  9346.1  96.4664
 29.2636  9399.76  96.4512
 29.4616  8935.19  94.3161
 29.6596  8994.09  94.2086
 29.8576  8768.77  93.6775
 30.0556  8887.79  94.1888
 30.2536  9066.25  94.9331
 30.4516  9124.39  94.8552
 30.6496  9146.92  94.7138
 30.8476  9067.13  94.732
 31.0456  9212.65  95.4502
 31.2436  9164.53  94.4697
 31.4416  8920.72  93.3953
 31.6396  9109.56  94.4254
 31.8376  9038.35  93.5826
 32.0356  8942.17  93.6624
 32.2336  8920.16  92.9471
 32.4316  8612.04  91.7342
 32.6296  8565.88  91.2551
 32.8276  8712.01  91.892
 33.0256  8501  90.8228
 33.2236  8609.82  91.5445
 33.4216  8501.62  90.6686
 33.6196  8383.59  90.32
 33.8176  8499.73  91.1063
 34.0156  8334.55  89.8589
 34.2136  8551.76  91.0372
 34.4116  8241.32  89.5474
 34.6096  8303.17  89.7485
 34.8076  8166.58  89.4213
 35.0056  8200.62  89.2706
 35.2036  8411.3  90.6383
 35.4016  8138.69  89.0839
 35.5996  8055.88  88.6617
 35.7976  8014.13  88.6877
 35.9956  8170.35  89.2034
 36.1936  8175.25  89.0842
 36.3916  8000.06  88.3241
 36.5896  8071.28  90.1436
 36.7876  7649.53  86.7387
 36.9856  7647.04  86.7495
 37.1836  7710.72  86.2437
 37.3816  7720.66  86.6512
 37.5796  7763.01  88.568
 37.7776  7936.23  87.9156
 37.9756  7808.24  87.0905
 38.1736  7980.51  88.2431
 38.3716  7736.32  87.1404
 38.5696  7803.74  87.9028
 38.7676  7614.03  86.3491
 38.9656  7691.95  86.4246
 39.1636  7691.82  86.6696
 39.3616  7763.48  87.0421
 39.5596  7542.39  86.6063
 39.7576  7444.86  85.4485
 39.9556  7632.19  86.1638
 40.1536  7785.7  87.2153
 40.3516  7641.63  86.4985
 40.5496  7677.82  86.6687
 40.7476  7799.52  87.5651
 40.9456  7747.97  87.0303
 41.1436  7716.11  86.5694
 41.3416  7523.27  85.8245
 41.5396  7544.89  85.7562
 41.7376  7671.49  86.7245
 41.9356  7468.22  85.4266
 42.1336  7733.28  87.0684
 42.3316  7533.12  86.1485
 42.5296  7581.24  85.939
 42.7276  7576.44  86.1535
 42.9256  7551.16  85.8821
 43.1236  7466.5  85.5052
 43.3216  7529.79  85.7155
 43.5196  7503.02  85.5192
 43.7176  7450.65  85.6106
 43.9156  7387.04  85.183
 44.1136  7249.73  83.9474
 44.3116  7253.18  83.9782
 44.5096  7337.09  84.772
 44.7076  7332.72  84.6772
 44.9056  7442.81  85.1508
 45.1036  7401.77  84.5399
 45.3016  7298.03  84.4337
 45.4996  7445.37  85.2316
 45.6976  7135.15  83.6189
 45.8956  7290.11  84.345
 46.0936  7383.47  84.8772
 46.2916  7218.49  83.9096
 46.4896  7308.99  84.4565
 46.6876  7221.6  84.6664
 46.8856  7182  83.8123
 47.0836  7266.99  84.4249
 47.2816  7148.01  83.6393
 47.4796  7187.69  83.9685
 47.6776  7001.92  83.8013
 47.8756  7193.94  84.1248
 48.0736  7182.77  84.4839
 48.2716  7035.02  83.4621
 48.4696  7281.21  84.4865
 48.6676  7180.08  84.4951
 48.8656  7216.16  84.4389
 49.0636  7177.44  84.1387
 49.2616  7020.86  83.2731
 49.4596  7125.91  83.446
 49.6576  7083.47  83.4145
 49.8556  7073.42  83.3886
 50.0536  7060.96  83.7611
 50.2516  7031.15  83.693
 50.4496  7037.56  83.4159
 50.6476  7013.2  82.9435
 50.8456  7053.14  83.2719
 51.0436  6915.51  82.9141
 51.2416  6831.23  82.0758
 51.4396  6635.67  81.2949
 51.6376  6799.01  82.1128
 51.8356  6802.31  81.7564
 52.0336  6704.96  81.647
 52.2316  6719.33  82.0928
 52.4296  6700.51  81.6887
 52.6276  6641.23  81.4354
 52.8256  6775.3  81.8051
 53.0236  6779.7  82.4782
 53.2216  6789.67  82.5772
 53.4196  6689.91  81.8847
 53.6176  6725.85  82.5945
 53.8156  6673.76  81.9495
 54.0136  6434.67  80.6367
 54.2116  6580.49  81.1619
 54.4096  6458.28  80.5
 54.6076  6329.82  80.0264
 54.8056  6394.21  80.2045
 55.0036  6277.68  79.8568
 55.2016  6421.84  80.3071
 55.3996  6159.95  78.6393
 55.5976  6234.52  79.3128
 55.7956  6188.75  78.8378
 55.9936  6326.99  79.824
 56.1916  6197.64  79.0551
 56.3896  6080.77  78.2762
 56.5876  6139.17  79.1917
 56.7856  6029.37  78.0101
 56.9836  6213.85  78.9502
 57.1816  6253.36  79.5611
 57.3796  5954.31  77.4448
 57.5776  6133.39  78.5099
 57.7756  5982.21  78.1996
 57.9736  5938.58  77.5921
 58.1716  5893.99  77.5476
 58.3696  5713.6  76.1392
 58.5676  5719.51  75.6579
 58.7656  5825.33  77.0212
 58.9636  5819.09  77.0069
 59.1616  5802.8  77.0205
 59.3596  5867.69  76.7214
 59.5576  5817.35  76.4472
 59.7556  5610.61  75.4796
 59.9536  5706.09  76.0208
 60.1516  5703.07  76.8256
 60.1996  0.0000000E+00  0.0000000E+00