Folder: echemistpy/docs/examples/XRD/IS17_D/Data/IS17_D (part 18)

File: 17_Da_f00153.xye
# /beamlines/bl04/projects/cycle2025-II/20250340211-lsimonelli/DATA/IS17_D/17_Da_f00153.xye : mythproc.py merge -s 0.006 -l 0.5 -f /beamlines/bl04/inhouse/ff/FlatField/ff_20Nov2024rod8mm60s_17keV.raw -b True -c true -o xye /beamlines/bl04/projects/cycle2025-II/20250340211-lsimonelli/DATA/IS17_D/17_Da_00153.dat
# IsMon = [6746246, 6739890, 6743004]  IsPos = [-1.5000, -2.4883, -3.4988]
# Wave = 0.4962  CalPath /beamlines/bl04/projects/cycle2025-II/20250340211-lsimonelli/DATA/Align/Si_Pos1_25keV_f00001.cal
# Date = 2025-09-25_12:13:44 Dt = 4.8000  Bin = 0.0060  <imon> = 6743047 +/- 2595 (Min/Max) 6739890 / 6746246
# icurr 249.3675  mocoIn 1.7009E-05  mocoOut 0.7978  i15 7.06239e+06  imon 6.74305e+06  i7 5.3333  iEMpd_timer 4.8000  iEMpd_1 3.4062E-08  iEMpd_2 7.9011E-08  iEMpd_3 1.7717E-08  iEMpd_4 4.7884E-08  iEMhp_timer 4.8000  iEMhp_1 4.8706E-06  iEMhp_2 -2.4600E-08  iEMhp_3 -2.2844E-08  iEMhp_4 -2.1149E-08
#      9776
 1.7416  69898.7  264.397
 1.9396  46048.1  214.874
 2.1376  32604.6  180.805
 2.3356  29353.2  171.193
 2.5336  27213.1  165.415
 2.7316  25814.9  161.257
 2.9296  24635.8  157.7
 3.1276  24055.5  155.368
 3.3256  23862.1  154.436
 3.5236  25605.9  159.778
 3.7216  23562.6  154.506
 3.9196  23049.4  152.04
 4.1176  22974.9  151.55
 4.3156  24149.5  155.554
 4.5136  26512.3  161.975
 4.7116  27680.1  166.641
 4.9096  26918.7  163.765
 5.1076  26486.4  163.012
 5.3056  26917.2  164.075
 5.5036  26736.4  163.427
 5.7016  27268.3  165.001
 5.8996  28055.9  166.569
 6.0976  28648.1  169.764
 6.2956  29182.9  170.688
 6.4936  29538.1  170.912
 6.6916  29770.2  172.574
 6.8896  30749.2  175.251
 7.0876  31936.3  179.235
 7.2856  31662.5  177.615
 7.4836  32418.7  179.147
 7.6816  32901.9  180.922
 7.8796  34407.6  185.034
 8.0776  35716.7  189.501
 8.2756  37355.3  192.396
 8.4736  38372.8  194.814
 8.6716  37632.4  193.566
 8.8696  37521  193.703
 9.0676  36744.1  191.047
 9.2656  35810.5  189.29
 9.4636  35355.8  186.505
 9.6616  34645.7  185.395
 9.8596  33283.5  181.191
 10.0576  31464.4  176.848
 10.2556  30594.1  174.812
 10.4536  29402  170.975
 10.6516  28784.2  169.365
 10.8496  27915.2  166.195
 11.0476  27584.6  165.241
 11.2456  26825.3  163.497
 11.4436  26958.5  163.053
 11.6416  26790.6  162.909
 11.8396  24986.4  157.517
 12.0376  24873.5  156.811
 12.2356  24325.6  155.49
 12.4336  24304.3  154.955
 12.6316  23961.8  154.113
 12.8296  24132.4  154.313
 13.0276  24699.4  156.302
 13.2256  24754.2  156.828
 13.4236  24644  156.257
 13.6216  24555.2  155.978
 13.8196  24697.1  156.207
 14.0176  24196.4  154.907
 14.2156  23581.5  151.964
 14.4136  22582  150.085
 14.6116  22275.1  148.266
 14.8096  21633.7  146.104
 15.0076  20472.4  145.943
 15.2056  19992.4  140.068
 15.4036  19139.2  137.871
 15.6016  18720.7  135.445
 15.7996  18317.1  134.252
 15.9976  17551.3  134.343
 16.1956  16929.3  129.811
 16.3936  16722.7  128.192
 16.5916  16480.4  127.888
 16.7896  16426.3  127.743
 16.9876  16448.5  129.31
 17.1856  15999.6  125.919
 17.3836  15700.6  124.618
 17.5816  15385.4  123.853
 17.7796  15222.6  123.125
 17.9776  14910.4  122.651
 18.1756  14966.6  121.588
 18.3736  14820  121.514
 18.5716  14577.9  120.254
 18.7696  14649.9  120.124
 18.9676  14350.4  118.688
 19.1656  14327.9  119.161
 19.3636  14064.8  118.279
 19.5616  14053.2  118.383
 19.7596  14128.1  118.089
 19.9576  14637.4  120.268
 20.1556  14545.9  120.432
 20.3536  13896.1  117.085
 20.5516  13502.2  115.856
 20.7496  13191.3  114.359
 20.9476  13204.7  114.256
 21.1456  13263  114.854
 21.3436  13131.1  114.225
 21.5416  12946.1  113.417
 21.7396  12726.5  112.29
 21.9376  12977.2  113.161
 22.1356  12729.3  112.345
 22.3336  12796.4  112.812
 22.5316  12785.1  112.846
 22.7296  12922  112.798
 22.9276  12824.7  113.061
 23.1256  12915.4  112.924
 23.3236  12747  112.723
 23.5216  12681.4  112.086
 23.7196  12548.5  111.658
 23.9176  12444.5  110.725
 24.1156  12351.1  110.793
 24.3136  11833  109.246
 24.5116  12024  109.649
 24.7096  11631.8  107.664
 24.9076  11201.5  105.665
 25.1056  11182.3  106.048
 25.3036  11199.1  105.644
 25.5016  11072.7  105.073
 25.6996  11261.8  105.547
 25.8976  11059.9  105.028
 26.0956  11183  105.637
 26.2936  11063.6  104.717
 26.4916  11094.4  104.746
 26.6896  10745.5  103.374
 26.8876  10706.1  103.031
 27.0856  10727.4  103.194
 27.2836  10434.2  101.735
 27.4816  10416.1  101.508
 27.6796  10377.6  101.704
 27.8776  10340.5  101.373
 28.0756  10357.5  101.754
 28.2736  10070.3  99.9135
 28.4716  9953.35  99.3745
 28.6696  10088.7  99.9
 28.8676  9973.82  99.6751
 29.0656  9756.46  98.5685
 29.2636  9881.58  98.9852
 29.4616  9870.5  99.1288
 29.6596  9847.39  98.5729
 29.8576  9696.36  98.5068
 30.0556  9537.95  97.5632
 30.2536  9695.81  98.1711
 30.4516  9440.34  96.5028
 30.6496  9502.59  96.5454
 30.8476  9563.61  97.301
 31.0456  9304.11  95.9273
 31.2436  9550.97  96.4509
 31.4416  9178.43  94.742
 31.6396  9327.91  95.5611
 31.8376  9283.26  94.8811
 32.0356  9256.39  95.3063
 32.2336  9166.43  94.2196
 32.4316  9143.76  94.476
 32.6296  9113.62  94.2087
 32.8276  9071.33  93.7516
 33.0256  9017.71  93.5596
 33.2236  8990.81  93.5562
 33.4216  9105.25  93.8423
 33.6196  8954.82  93.3665
 33.8176  8843.64  92.9379
 34.0156  8830.87  92.4924
 34.2136  8896.27  92.8665
 34.4116  8711.92  92.1646
 34.6096  8643.76  91.5722
 34.8076  8570.29  91.5864
 35.0056  8588.67  91.3803
 35.2036  8518.72  91.2082
 35.4016  8552.64  91.327
 35.5996  8597.2  91.595
 35.7976  8424.57  90.9433
 35.9956  8566.42  91.3514
 36.1936  8506.43  90.8909
 36.3916  8396.56  90.4342
 36.5896  8394.47  91.4505
 36.7876  8288.81  90.2903
 36.9856  8125.8  89.4204
 37.1836  8320.07  89.5861
 37.3816  8295.59  89.8183
 37.5796  8113.15  90.5306
 37.7776  8061.18  88.6081
 37.9756  8096.07  88.6794
 38.1736  8155.7  89.2101
 38.3716  8068.15  89.0027
 38.5696  8087.36  89.498
 38.7676  7908.18  88.0051
 38.9656  8018.65  88.255
 39.1636  7938.98  88.0706
 39.3616  8040.25  88.5781
 39.5596  7922.96  88.7654
 39.7576  7872.84  87.8654
 39.9556  7918.65  87.7611
 40.1536  8026.8  88.5589
 40.3516  7967.89  88.2505
 40.5496  7987.01  88.6188
 40.7476  8037.48  88.9005
 40.9456  8101.39  88.9981
 41.1436  8009.13  88.2057
 41.3416  7906.41  87.9485
 41.5396  7925.94  87.8351
 41.7376  7978.2  88.4506
 41.9356  7865.06  87.6808
 42.1336  7908.04  88.0615
 42.3316  7909.71  88.2805
 42.5296  7874.95  87.5976
 42.7276  7952.36  88.2684
 42.9256  7845.33  87.5372
 43.1236  7691.56  86.7881
 43.3216  7851.85  87.432
 43.5196  7710.43  86.7079
 43.7176  7740.46  87.2719
 43.9156  7575.47  86.2566
 44.1136  7566.72  85.7641
 44.3116  7615.86  86.0529
 44.5096  7558.92  86.0396
 44.7076  7680.8  86.662
 44.9056  7529.35  85.6506
 45.1036  7451.44  84.831
 45.3016  7471.34  85.446
 45.4996  7426.58  85.1287
 45.6976  7333.57  84.7742
 45.8956  7396.09  84.9577
 46.0936  7398.54  84.7469
 46.2916  7366.88  84.7716
 46.4896  7353.73  84.7256
 46.6876  7277.55  85.0008
 46.8856  7169.11  83.6276
 47.0836  7114.05  83.5408
 47.2816  7107.4  83.4006
 47.4796  7123.07  83.5957
 47.6776  7053.92  84.1184
 47.8756  7043.2  83.2445
 48.0736  6990.75  83.3779
 48.2716  6974.24  83.1242
 48.4696  7017.78  82.9828
 48.6676  7014.64  83.5192
 48.8656  6973.58  83.0095
 49.0636  7077.29  83.5565
 49.2616  6927.75  82.6102
 49.4596  6952.06  82.582
 49.6576  6853.86  82.0696
 49.8556  6918.45  82.4697
 50.0536  6795.68  82.1767
 50.2516  6827.91  82.5004
 50.4496  6779.49  81.8732
 50.6476  6873.31  82.1186
 50.8456  6706.38  81.1913
 51.0436  6573.73  80.838
 51.2416  6510.07  80.1189
 51.4396  6526.11  80.6133
 51.6376  6494.08  80.2463
 51.8356  6582.24  80.4229
 52.0336  6478.4  80.2681
 52.2316  6366.41  79.9036
 52.4296  6513.41  80.5299
 52.6276  6440.65  80.1917
 52.8256  6356.06  79.217
 53.0236  6353.28  79.8517
 53.2216  6339.88  79.7822
 53.4196  6294.42  79.4384
 53.6176  6441.48  80.8388
 53.8156  6359.49  79.9837
 54.0136  6371.77  80.2464
 54.2116  6261.49  79.2107
 54.4096  6292.47  79.4672
 54.6076  6258.49  79.5892
 54.8056  6254.54  79.3588
 55.0036  6189.1  79.2016
 55.2016  6151.76  78.5706
 55.3996  6233.91  79.1331
 55.5976  6243.19  79.3825
 55.7956  6224.33  79.0786
 55.9936  6221.96  79.1929
 56.1916  6219.12  79.1981
 56.3896  6249.26  79.3848
 56.5876  6124.99  79.137
 56.7856  6210.52  79.1683
 56.9836  6112.07  78.3205
 57.1816  6122.24  78.7613
 57.3796  6159.68  78.8069
 57.5776  6166.05  78.7789
 57.7756  6162.62  79.3894
 57.9736  6151.49  78.9949
 58.1716  6183.08  79.4355
 58.3696  6103.06  78.6874
 58.5676  6153.15  78.4776
 58.7656  6150.21  79.1377
 58.9636  6302.9  80.147
 59.1616  6127.87  79.1389
 59.3596  6239.21  79.1095
 59.5576  6253.31  79.2596
 59.7556  6260.55  79.7313
 59.9536  6128.64  78.785
 60.1516  6204.53  80.1316
 60.1996  0.0000000E+00  0.0000000E+00

File: 17_Db_f00004.xye
# /beamlines/bl04/projects/cycle2025-II/20250340211-lsimonelli/DATA/IS17_D/17_Db_f00004.xye : mythproc.py merge -s 0.006 -l 0.5 -f /beamlines/bl04/inhouse/ff/FlatField/ff_20Nov2024rod8mm60s_17keV.raw -b True -c true -o xye /beamlines/bl04/projects/cycle2025-II/20250340211-lsimonelli/DATA/IS17_D/17_Db_00004.dat
# IsMon = [6753935, 6751631, 6750845]  IsPos = [-1.5000, -2.4885, -3.4988]
# Wave = 0.4962  CalPath /beamlines/bl04/projects/cycle2025-II/20250340211-lsimonelli/DATA/Align/Si_Pos1_25keV_f00001.cal
# Date = 2025-09-23_18:49:08 Dt = 4.8000  Bin = 0.0060  <imon> = 6752137 +/- 1311 (Min/Max) 6750845 / 6753935
# icurr 250.4007  mocoIn 1.7084E-05  mocoOut 0.8016  i15 7.06693e+06  imon 6.75214e+06  i7 4.0000  iEMpd_timer 4.8000  iEMpd_1 3.6446E-08  iEMpd_2 7.9505E-08  iEMpd_3 1.8491E-08  iEMpd_4 4.7471E-08  iEMhp_timer 4.8000  iEMhp_1 4.8928E-06  iEMhp_2 -2.4790E-08  iEMhp_3 -2.3540E-08  iEMhp_4 -2.1416E-08
#      9776
 1.7416  70480.8  265.523
 1.9396  48291  220.073
 2.1376  34709.6  186.57
 2.3356  31054.7  176.104
 2.5336  28847.6  170.328
 2.7316  26268.3  162.665
 2.9296  25168.2  159.38
 3.1276  24823  157.821
 3.3256  23904.9  154.545
 3.5236  25944.3  160.948
 3.7216  23571.7  154.515
 3.9196  22837.3  151.303
 4.1176  22912.8  151.346
 4.3156  23898.8  154.748
 4.5136  26259  161.188
 4.7116  27451.4  165.943
 4.9096  26766.8  163.294
 5.1076  26384.5  162.695
 5.3056  26296.5  162.155
 5.5036  25859.3  160.798
 5.7016  26398.7  162.341
 5.8996  26729.2  162.601
 6.0976  27713.9  166.952
 6.2956  27945  167.014
 6.4936  28722.7  168.525
 6.6916  29003  170.322
 6.8896  29693.8  172.192
 7.0876  31122.2  176.923
 7.2856  30613.8  174.629
 7.4836  31096.5  175.358
 7.6816  31995.3  178.377
 7.8796  32700.5  180.365
 8.0776  34116.8  185.199
 8.2756  35676  188.024
 8.4736  36463.5  189.893
 8.6716  35476.8  187.915
 8.8696  36227.1  190.376
 9.0676  35252.6  187.135
 9.2656  34589.8  186.036
 9.4636  33518.2  181.641
 9.6616  32673  180.055
 9.8596  32090  177.87
 10.0576  30112  172.975
 10.2556  29517.2  171.691
 10.4536  28115.1  167.176
 10.6516  27488.7  165.503
 10.8496  26393.8  161.611
 11.0476  25512.8  158.863
 11.2456  24757.3  157.055
 11.4436  25290.4  157.921
 11.6416  25385.2  158.556
 11.8396  23932.3  154.146
 12.0376  23320  151.817
 12.2356  23105  151.552
 12.4336  23177.4  151.32
 12.6316  22950.9  150.829
 12.8296  23033.1  150.716
 13.0276  23530.3  152.555
 13.2256  23607.1  153.158
 13.4236  23535.1  152.695
 13.6216  23874.5  153.781
 13.8196  26162.5  160.424
 14.0176  22978.6  150.96
 14.2156  22420.6  148.157
 14.4136  21380.6  146.034
 14.6116  21180.3  144.564
 14.8096  20408.2  141.883
 15.0076  19480.3  142.439
 15.2056  18490  134.695
 15.4036  17539  131.993
 15.6016  17341.8  130.355
 15.7996  16809.3  128.598
 15.9976  16570.2  130.502
 16.1956  16277.8  127.272
 16.3936  16118.5  125.848
 16.5916  15672  124.72
 16.7896  15859.4  125.521
 16.9876  15592  125.884
 17.1856  15290.9  123.083
 17.3836  15029.4  121.931
 17.5816  14632.9  120.775
 17.7796  14503.9  120.178
 17.9776  14074.9  119.151
 18.1756  14133.1  118.176
 18.3736  13834.2  117.386
 18.5716  13638.1  116.308
 18.7696  13655.2  115.943
 18.9676  13556.2  115.331
 19.1656  13369.2  115.119
 19.3636  13136.4  114.303
 19.5616  13155.6  114.543
 19.7596  13539.8  115.614
 19.9576  13809.8  116.807
 20.1556  13572.2  116.319
 20.3536  13112.8  113.739
 20.5516  12974.4  113.567
 20.7496  12696.1  112.187
 20.9476  12601.2  111.613
 21.1456  12478.1  111.397
 21.3436  12328.1  110.672
 21.5416  12209.4  110.152
 21.7396  12148.7  109.723
 21.9376  12079.1  109.19
 22.1356  12243.3  110.19
 22.3336  11772.9  108.179
 22.5316  11905.8  108.895
 22.7296  11906.1  108.28
 22.9276  11961.7  109.184
 23.1256  11913.6  108.461
 23.3236  12179.4  110.211
 23.5216  12057.8  109.305
 23.7196  12162.4  109.937
 23.9176  12093.9  109.165
 24.1156  11936.4  108.909
 24.3136  11493.7  107.662
 24.5116  11644.6  107.893
 24.7096  11325.2  106.204
 24.9076  11114.3  105.252
 25.1056  10897.6  104.416
 25.3036  10589.7  102.722
 25.5016  10622.5  102.913
 25.6996  10737.1  103.057
 25.8976  10624.9  102.932
 26.0956  10475.5  102.219
 26.2936  10504.7  102.042
 26.4916  10700.6  102.834
 26.6896  10461.8  101.976
 26.8876  10362.3  101.354
 27.0856  10132.9  100.257
 27.2836  9979.55  99.4227
 27.4816  9889.09  98.9045
 27.6796  9798.64  98.816
 27.8776  10027.8  99.8162
 28.0756  9735.19  98.6428
 28.2736  9694.9  98.0242
 28.4716  9595.04  97.5649
 28.6696  9494.43  96.9073
 28.8676  9418.83  96.8583
 29.0656  9384.93  96.6651
 29.2636  9459.43  96.7591
 29.4616  9110.34  95.2306
 29.6596  9146.94  94.9991
 29.8576  8842.55  94.0646
 30.0556  8887.75  94.1871
 30.2536  9156.12  95.3958
 30.4516  9084.05  94.6493
 30.6496  9129.68  94.6345
 30.8476  9041.24  94.6053
 31.0456  9209.75  95.4436
 31.2436  9205.93  94.6946
 31.4416  9028.49  93.9569
 31.6396  9007.2  93.8824
 31.8376  8921.3  92.99
 32.0356  8894.38  93.4009
 32.2336  8934.72  93.0175
 32.4316  8605.61  91.6945
 32.6296  8675.88  91.8447
 32.8276  8643.12  91.5255
 33.0256  8559.4  91.148
 33.2236  8658.16  91.8061
 33.4216  8612.04  91.2581
 33.6196  8475.75  90.8216
 33.8176  8467.89  90.9395
 34.0156  8443.29  90.4442
 34.2136  8515.78  90.8352
 34.4116  8215.77  89.4034
 34.6096  8249.64  89.4645
 34.8076  8189.03  89.5417
 35.0056  8179.83  89.1729
 35.2036  8439.66  90.7988
 35.4016  8114.42  88.9464
 35.5996  8227.08  89.5898
 35.7976  8055.34  88.9156
 35.9956  8178.7  89.2616
 36.1936  8165.91  89.0411
 36.3916  7994.67  88.2926
 36.5896  8043.87  89.9941
 36.7876  7754.29  87.3211
 36.9856  7793.48  87.573
 37.1836  7712.14  86.2451
 37.3816  7762.7  86.8853
 37.5796  7862.78  89.1317
 37.7776  7994.07  88.2407
 37.9756  7926.34  87.7589
 38.1736  7900.01  87.7973
 38.3716  7869  87.8914
 38.5696  7707.41  87.3556
 38.7676  7695.22  86.7991
 38.9656  7722.65  86.6012
 39.1636  7662.36  86.5002
 39.3616  7720.59  86.7935
 39.5596  7510.36  86.4343
 39.7576  7582.65  86.2338
 39.9556  7656.43  86.2999
 40.1536  7744.95  86.9909
 40.3516  7705.08  86.7766
 40.5496  7740.27  87.01
 40.7476  7688  86.938
 40.9456  7754.56  87.0717
 41.1436  7709.44  86.5341
 41.3416  7570.95  86.0898
 41.5396  7623.04  86.1976
 41.7376  7556.96  86.0739
 41.9356  7685.82  86.6617
 42.1336  7713.1  86.9618
 42.3316  7514.31  86.0328
 42.5296  7587.79  85.9787
 42.7276  7572.42  86.1267
 42.9256  7607.62  86.2008
 43.1236  7527.29  85.8514
 43.3216  7529.83  85.718
 43.5196  7462.21  85.2879
 43.7176  7530.35  86.069
 43.9156  7201.06  84.097
 44.1136  7188.2  83.587
 44.3116  7372.53  84.6636
 44.5096  7389.1  85.0646
 44.7076  7314.74  84.5675
 44.9056  7408.02  84.9659
 45.1036  7492.22  85.0716
 45.3016  7345.43  84.7243
 45.4996  7367.67  84.7972
 45.6976  7284.39  84.4982
 45.8956  7320.56  84.5171
 46.0936  7442.78  84.9747
 46.2916  7456.31  85.2788
 46.4896  7397.05  84.961
 46.6876  7313.69  85.2001
 46.8856  7183  83.7115
 47.0836  7171.41  83.8822
 47.2816  7141.26  83.5884
 47.4796  7234.27  84.24
 47.6776  7088.32  84.324
 47.8756  7316.68  84.8411
 48.0736  7221.36  84.7443
 48.2716  7101.69  83.8586
 48.4696  7208.9  84.0678
 48.6676  7135.54  84.2305
 48.8656  7209.37  84.4036
 49.0636  7242.39  84.5336
 49.2616  7088.41  83.6694
 49.4596  7099.96  83.2949
 49.6576  7097.75  83.5121
 49.8556  7104.98  83.5745
 50.0536  7080.05  83.8711
 50.2516  7033.44  83.7036
 50.4496  7038.84  83.4177
 50.6476  7006.84  82.9092
 50.8456  7068.34  83.3542
 51.0436  6968.31  83.2247
 51.2416  6805.33  81.9213
 51.4396  6711.14  81.7499
 51.6376  6698.31  81.4892
 51.8356  6784.58  81.6401
 52.0336  6771.27  82.0666
 52.2316  6767.64  82.3957
 52.4296  6797.56  82.2864
 52.6276  6700.65  81.8037
 52.8256  6864.41  82.3529
 53.0236  6802.98  82.6148
 53.2216  6771.28  82.4389
 53.4196  6747.78  82.2254
 53.6176  6823.04  83.1949
 53.8156  6666.81  81.9007
 54.0136  6409.73  80.4798
 54.2116  6603.42  81.3242
 54.4096  6538.49  80.993
 54.6076  6428.04  80.6465
 54.8056  6294  79.5829
 55.0036  6539.98  81.3947
 55.2016  6381  79.9803
 55.3996  6285.02  79.4449
 55.5976  6288.92  79.6609
 55.7956  6283.42  79.4315
 55.9936  6364.36  80.0586
 56.1916  6199.96  79.061
 56.3896  6103.13  78.4223
 56.5876  6134.84  79.171
 56.7856  6048.24  78.1231
 56.9836  6266.46  79.2964
 57.1816  6244.68  79.5043
 57.3796  6078.23  78.2735
 57.5776  6119.01  78.4234
 57.7756  6012.88  78.3844
 57.9736  6008.19  78.0491
 58.1716  5939.85  77.8592
 58.3696  5728.88  76.2288
 58.5676  5833.21  76.3941
 58.7656  5859.61  77.2417
 58.9636  5826.61  77.0509
 59.1616  5776.66  76.849
 59.3596  5844.22  76.5747
 59.5576  5842.28  76.6175
 59.7556  5659.86  75.8169
 59.9536  5740.68  76.2576
 60.1516  5707.95  76.8652
 60.1996  0.0000000E+00  0.0000000E+00