Folder: echemistpy/docs/examples/XRD/IS17_D/Data/IS17_D (part 17)

File: 17_Da_f00147.xye
# /beamlines/bl04/projects/cycle2025-II/20250340211-lsimonelli/DATA/IS17_D/17_Da_f00147.xye : mythproc.py merge -s 0.006 -l 0.5 -f /beamlines/bl04/inhouse/ff/FlatField/ff_20Nov2024rod8mm60s_17keV.raw -b True -c true -o xye /beamlines/bl04/projects/cycle2025-II/20250340211-lsimonelli/DATA/IS17_D/17_Da_00147.dat
# IsMon = [6751253, 6751290, 6747061]  IsPos = [-1.4999, -2.4883, -3.4988]
# Wave = 0.4962  CalPath /beamlines/bl04/projects/cycle2025-II/20250340211-lsimonelli/DATA/Align/Si_Pos1_25keV_f00001.cal
# Date = 2025-09-25_10:32:02 Dt = 4.8000  Bin = 0.0060  <imon> = 6749868 +/- 1985 (Min/Max) 6747061 / 6751290
# icurr 249.7174  mocoIn 1.7037E-05  mocoOut 0.7987  i15 7.06649e+06  imon 6.74987e+06  i7 8.6667  iEMpd_timer 4.8000  iEMpd_1 3.4331E-08  iEMpd_2 7.8312E-08  iEMpd_3 1.8108E-08  iEMpd_4 4.8447E-08  iEMhp_timer 4.8000  iEMhp_1 4.8786E-06  iEMhp_2 -2.5308E-08  iEMhp_3 -2.4006E-08  iEMhp_4 -2.0155E-08
#      9776
 1.7416  70182.3  264.968
 1.9396  46029.6  214.863
 2.1376  32451.4  180.404
 2.3356  28984.8  170.139
 2.5336  27027.6  164.872
 2.7316  25435.9  160.054
 2.9296  24364.3  156.812
 3.1276  23740.6  154.343
 3.3256  23874.1  154.462
 3.5236  25503.6  159.43
 3.7216  23360.5  153.84
 3.9196  22857.8  151.409
 4.1176  22675.5  150.559
 4.3156  24027.1  155.164
 4.5136  26343.5  161.445
 4.7116  27445.5  165.929
 4.9096  26793.3  163.384
 5.1076  26442.5  162.882
 5.3056  27095.1  164.626
 5.5036  26784.7  163.557
 5.7016  27197.4  164.786
 5.8996  27914.7  166.155
 6.0976  28615.9  169.676
 6.2956  29100.5  170.444
 6.4936  29613.1  171.12
 6.6916  29941.9  173.073
 6.8896  30607.4  174.843
 7.0876  31845  179.075
 7.2856  31647.1  177.57
 7.4836  32179.5  178.471
 7.6816  32907.1  180.935
 7.8796  34160.5  184.353
 8.0776  35990.6  190.214
 8.2756  37656.4  193.174
 8.4736  38282.5  194.572
 8.6716  37793.4  193.949
 8.8696  37530.7  193.762
 9.0676  36875.1  191.421
 9.2656  35930  189.641
 9.4636  35293.4  186.361
 9.6616  34773.3  185.771
 9.8596  33377.9  181.426
 10.0576  31874.1  177.963
 10.2556  30724.2  175.164
 10.4536  29892.7  172.378
 10.6516  29240.6  170.674
 10.8496  28196.6  167.044
 11.0476  27664.3  165.479
 11.2456  26982.8  163.957
 11.4436  27392.2  164.349
 11.6416  26453.5  161.883
 11.8396  25000.2  157.568
 12.0376  24924.7  156.982
 12.2356  24321.8  155.464
 12.4336  24342.5  155.076
 12.6316  23993.1  154.222
 12.8296  24234.5  154.639
 13.0276  24972.7  157.165
 13.2256  24800.1  156.978
 13.4236  24792.6  156.724
 13.6216  24506.3  155.829
 13.8196  24559.1  155.77
 14.0176  24244  155.056
 14.2156  23672.6  152.251
 14.4136  22679.6  150.409
 14.6116  22352.6  148.524
 14.8096  21620.2  146.061
 15.0076  20498.5  146.031
 15.2056  20261.8  141.001
 15.4036  19216.2  138.145
 15.6016  18659.1  135.214
 15.7996  18448.4  134.73
 15.9976  17687.4  134.881
 16.1956  17206.8  130.893
 16.3936  16803.1  128.521
 16.5916  16604.6  128.397
 16.7896  16645.8  128.615
 16.9876  16452.4  129.328
 17.1856  16105.1  126.309
 17.3836  15767.6  124.879
 17.5816  15271.1  123.381
 17.7796  15294.4  123.401
 17.9776  15031.4  123.154
 18.1756  15130.5  122.247
 18.3736  15152.3  122.858
 18.5716  14783.6  121.106
 18.7696  14816.5  120.804
 18.9676  14425.5  119.002
 19.1656  14366.3  119.324
 19.3636  14223.8  118.935
 19.5616  14205.6  119.032
 19.7596  14232  118.531
 19.9576  14881.8  121.27
 20.1556  14243.2  119.169
 20.3536  13841.8  116.847
 20.5516  13459.5  115.673
 20.7496  13290.8  114.887
 20.9476  13118.6  113.885
 21.1456  13402.8  115.452
 21.3436  13118.3  114.172
 21.5416  13103  114.101
 21.7396  12951.8  113.287
 21.9376  12848.4  112.608
 22.1356  13016.8  113.459
 22.3336  12846.5  113.014
 22.5316  12899.6  113.34
 22.7296  12780.4  112.163
 22.9276  12809.5  112.983
 23.1256  12985.8  113.24
 23.3236  12740.5  112.713
 23.5216  12701.2  112.194
 23.7196  12690.3  112.094
 23.9176  12508.6  111.033
 24.1156  12468.8  111.34
 24.3136  11813.3  109.145
 24.5116  12009.6  109.572
 24.7096  11658.4  107.776
 24.9076  11419.9  106.692
 25.1056  11234.8  106.288
 25.3036  11300.5  106.114
 25.5016  11316.8  106.229
 25.6996  11230.6  105.403
 25.8976  11090.3  105.173
 26.0956  11123  105.358
 26.2936  11024.2  104.522
 26.4916  11078.4  104.66
 26.6896  10753.5  103.416
 26.8876  10670.3  102.863
 27.0856  10652.3  102.838
 27.2836  10557.4  102.325
 27.4816  10521.9  102.023
 27.6796  10333.8  101.489
 27.8776  10210.1  100.734
 28.0756  10317.2  101.554
 28.2736  10206.3  100.584
 28.4716  10029.9  99.7629
 28.6696  10023.6  99.5756
 28.8676  9927.18  99.4438
 29.0656  9760.27  98.5954
 29.2636  9774.16  98.4429
 29.4616  9765.05  98.5897
 29.6596  9886.79  98.7645
 29.8576  9547.89  97.7423
 30.0556  9674.01  98.2651
 30.2536  9745.46  98.4167
 30.4516  9634.39  97.5061
 30.6496  9647.93  97.296
 30.8476  9592.73  97.4631
 31.0456  9373.62  96.3006
 31.2436  9540.54  96.4156
 31.4416  9291.48  95.3141
 31.6396  9340.3  95.6111
 31.8376  9341.5  95.1689
 32.0356  9401.35  96.0391
 32.2336  9185.07  94.3163
 32.4316  9090.71  94.2036
 32.6296  9009.87  93.6633
 32.8276  9036.11  93.565
 33.0256  8982.92  93.3787
 33.2236  8910.81  93.1419
 33.4216  8991.19  93.2584
 33.6196  9008.22  93.6373
 33.8176  8836.04  92.9042
 34.0156  8900.75  92.8556
 34.2136  8795.24  92.3395
 34.4116  8814.43  92.7139
 34.6096  8718.88  91.9741
 34.8076  8622.33  91.8673
 35.0056  8676.54  91.8467
 35.2036  8516.9  91.2026
 35.4016  8601.66  91.5874
 35.5996  8575.64  91.4696
 35.7976  8505.51  91.3758
 35.9956  8555.23  91.2929
 36.1936  8424.99  90.4653
 36.3916  8359.02  90.239
 36.5896  8330.76  91.0808
 36.7876  8515.29  91.512
 36.9856  8192.93  89.7861
 37.1836  8321.67  89.5875
 37.3816  8284.92  89.7579
 37.5796  8183.72  90.9223
 37.7776  8164.4  89.1828
 37.9756  8068.54  88.5458
 38.1736  8147.68  89.1801
 38.3716  8143.9  89.4375
 38.5696  8032.11  89.1938
 38.7676  7807.94  87.4319
 38.9656  7990.79  88.0923
 39.1636  7887.11  87.7708
 39.3616  8027.33  88.4905
 39.5596  7929.69  88.7923
 39.7576  7913.31  88.0872
 39.9556  8020.34  88.3132
 40.1536  8017.31  88.5114
 40.3516  8091.52  88.9289
 40.5496  7966.89  88.4982
 40.7476  8063.89  89.0441
 40.9456  8046.82  88.6986
 41.1436  8063.95  88.5062
 41.3416  8005.38  88.5002
 41.5396  8006.46  88.2723
 41.7376  7947.94  88.2844
 41.9356  7967.72  88.2486
 42.1336  8025.33  88.7125
 42.3316  7854.75  87.9682
 42.5296  7882.49  87.6312
 42.7276  7852.03  87.7097
 42.9256  7803.22  87.3042
 43.1236  7777.25  87.2701
 43.3216  7811.35  87.2085
 43.5196  7717.23  86.74
 43.7176  7807.14  87.6452
 43.9156  7613.98  86.4721
 44.1136  7729.25  86.6744
 44.3116  7661.38  86.3096
 44.5096  7698.9  86.8296
 44.7076  7636.26  86.4047
 44.9056  7522.57  85.6232
 45.1036  7453.82  84.8613
 45.3016  7453.82  85.3548
 45.4996  7341.03  84.6519
 45.6976  7408.82  85.2212
 45.8956  7391.47  84.9227
 46.0936  7391.21  84.8694
 46.2916  7474.63  85.3814
 46.4896  7388.22  84.9189
 46.6876  7254.48  84.8533
 46.8856  7164.88  83.606
 47.0836  7199.5  84.049
 47.2816  7097.05  83.3317
 47.4796  7109.17  83.5084
 47.6776  7077.88  84.2626
 47.8756  7116.91  83.6697
 48.0736  7106.58  84.0732
 48.2716  6958.83  83.049
 48.4696  7027.69  83.0342
 48.6676  7073.24  83.8656
 48.8656  7035.14  83.3759
 49.0636  7013.85  83.1908
 49.2616  6855.36  82.1762
 49.4596  6818.74  81.7708
 49.6576  6803.92  81.7533
 49.8556  6885.34  82.2726
 50.0536  6802.83  82.2223
 50.2516  6798.08  82.328
 50.4496  6760.25  81.7475
 50.6476  6824.93  81.8283
 50.8456  6818.46  81.8835
 51.0436  6652.11  81.3133
 51.2416  6730.33  81.4672
 51.4396  6527.87  80.618
 51.6376  6626.14  81.0459
 51.8356  6616.93  80.626
 52.0336  6459.21  80.1613
 52.2316  6457.43  80.4924
 52.4296  6477.37  80.3206
 52.6276  6492.21  80.5289
 52.8256  6551.11  80.45
 53.0236  6405.72  80.1719
 53.2216  6298.21  79.5319
 53.4196  6216.15  78.9368
 53.6176  6361.2  80.3267
 53.8156  6435.87  80.4662
 54.0136  6400.2  80.4326
 54.2116  6285.52  79.3671
 54.4096  6396.49  80.1107
 54.6076  6321.16  79.9943
 54.8056  6114.62  78.4649
 55.0036  6281.49  79.9229
 55.2016  6125.95  78.4745
 55.3996  6278.39  79.4173
 55.5976  6185.25  79.0033
 55.7956  6169.51  78.7313
 55.9936  6185  78.9553
 56.1916  6165.61  78.8512
 56.3896  6263.18  79.47
 56.5876  6150.28  79.2983
 56.7856  6165.17  78.877
 56.9836  6056.16  77.9623
 57.1816  6220.04  79.3848
 57.3796  6226  79.2283
 57.5776  6225.36  79.1428
 57.7756  6130.12  79.1819
 57.9736  6095.15  78.6309
 58.1716  6168.12  79.3441
 58.3696  6186.61  79.2134
 58.5676  6135.17  78.359
 58.7656  6152.88  79.1396
 58.9636  6250.41  79.8064
 59.1616  6164.75  79.3797
 59.3596  6301.35  79.5221
 59.5576  6245.91  79.2289
 59.7556  6195.13  79.3299
 59.9536  6236.84  79.4937
 60.1516  6150.04  79.7953
 60.1996  0.0000000E+00  0.0000000E+00

File: 17_Da_f00150.xye
# /beamlines/bl04/projects/cycle2025-II/20250340211-lsimonelli/DATA/IS17_D/17_Da_f00150.xye : mythproc.py merge -s 0.006 -l 0.5 -f /beamlines/bl04/inhouse/ff/FlatField/ff_20Nov2024rod8mm60s_17keV.raw -b True -c true -o xye /beamlines/bl04/projects/cycle2025-II/20250340211-lsimonelli/DATA/IS17_D/17_Da_00150.dat
# IsMon = [6773032, 6782072, 6778115]  IsPos = [-1.4999, -2.4883, -3.4988]
# Wave = 0.4962  CalPath /beamlines/bl04/projects/cycle2025-II/20250340211-lsimonelli/DATA/Align/Si_Pos1_25keV_f00001.cal
# Date = 2025-09-25_11:21:41 Dt = 4.8000  Bin = 0.0060  <imon> = 6777740 +/- 3700 (Min/Max) 6773032 / 6782072
# icurr 252.1586  mocoIn 1.7200E-05  mocoOut 0.8066  i15 7.09674e+06  imon 6.77774e+06  i7 6.6667  iEMpd_timer 4.8000  iEMpd_1 3.3907E-08  iEMpd_2 7.8145E-08  iEMpd_3 1.6346E-08  iEMpd_4 4.8341E-08  iEMhp_timer 4.8000  iEMhp_1 4.9260E-06  iEMhp_2 -2.4718E-08  iEMhp_3 -2.3374E-08  iEMhp_4 -2.0016E-08
#      9776
 1.7416  70616.6  265.906
 1.9396  46752.3  216.638
 2.1376  33086  182.242
 2.3356  29224.3  170.917
 2.5336  27107.7  165.19
 2.7316  25688.4  160.862
 2.9296  24743.5  158.044
 3.1276  24241.9  155.994
 3.3256  23895.8  154.55
 3.5236  25848.5  160.505
 3.7216  23797.1  155.272
 3.9196  23158.2  152.402
 4.1176  23015.6  151.709
 4.3156  24314.6  156.085
 4.5136  26802.6  162.838
 4.7116  27861.7  167.185
 4.9096  26905.3  163.725
 5.1076  26666.6  163.59
 5.3056  27208.3  164.958
 5.5036  27079  164.441
 5.7016  27596.1  165.989
 5.8996  28240.4  167.12
 6.0976  28845.8  170.37
 6.2956  29485.2  171.552
 6.4936  30003.6  172.245
 6.6916  30426.9  174.468
 6.8896  30945.5  175.808
 7.0876  31955.3  179.383
 7.2856  31900.9  178.284
 7.4836  32441.2  179.187
 7.6816  33227.7  181.81
 7.8796  34705.3  185.774
 8.0776  36039.8  190.296
 8.2756  37919.5  193.794
 8.4736  38530.4  195.152
 8.6716  38096.3  194.682
 8.8696  37740.4  194.313
 9.0676  37082.4  191.978
 9.2656  36100.4  190.106
 9.4636  35700.3  187.429
 9.6616  35319.4  187.219
 9.8596  33689.7  182.293
 10.0576  31987.7  178.282
 10.2556  30864.8  175.587
 10.4536  29953.7  172.573
 10.6516  29178.8  170.519
 10.8496  28640.7  168.356
 11.0476  28118.2  166.828
 11.2456  27116.1  164.354
 11.4436  27491.2  164.65
 11.6416  26829.2  163.028
 11.8396  25331  158.624
 12.0376  25164.5  157.727
 12.2356  24547.4  156.175
 12.4336  24658.9  156.082
 12.6316  24184.2  154.85
 12.8296  24612.2  155.84
 13.0276  25117.1  157.601
 13.2256  24982.3  157.555
 13.4236  25041  157.505
 13.6216  24778.3  156.709
 13.8196  24804.5  156.544
 14.0176  24610.6  156.215
 14.2156  23828.5  152.758
 14.4136  22800  150.801
 14.6116  22467.2  148.904
 14.8096  22007.8  147.359
 15.0076  20646.6  146.573
 15.2056  20368  141.337
 15.4036  19315.5  138.478
 15.6016  18982.7  136.348
 15.7996  18669.5  135.504
 15.9976  17765.3  135.144
 16.1956  17308.1  131.291
 16.3936  16965.9  129.156
 16.5916  16743.3  128.942
 16.7896  16594.8  128.427
 16.9876  16629.8  130.024
 17.1856  16256.5  126.896
 17.3836  15808.7  125.052
 17.5816  15350.7  123.709
 17.7796  15226.8  123.15
 17.9776  15151.8  123.65
 18.1756  15355.1  123.162
 18.3736  15114.3  122.697
 18.5716  14787.3  121.112
 18.7696  14783.5  120.669
 18.9676  14584.9  119.669
 19.1656  14442.4  119.642
 19.3636  14478.9  119.979
 19.5616  14277.6  119.33
 19.7596  14379.9  119.157
 19.9576  14874.5  121.242
 20.1556  14492.5  120.197
 20.3536  13959  117.344
 20.5516  13653.3  116.5
 20.7496  13402.9  115.369
 20.9476  13212.6  114.308
 21.1456  13427.3  115.545
 21.3436  13104.5  114.111
 21.5416  13121.2  114.174
 21.7396  13010.7  113.543
 21.9376  13016.9  113.336
 22.1356  13019  113.458
 22.3336  13007.9  113.694
 22.5316  13045  113.949
 22.7296  12894.5  112.636
 22.9276  12968.7  113.659
 23.1256  12999.7  113.268
 23.3236  12895.6  113.403
 23.5216  12884.5  113.013
 23.7196  12624.4  111.809
 23.9176  12580.4  111.377
 24.1156  12302.8  110.608
 24.3136  12113.1  110.534
 24.5116  12013.4  109.602
 24.7096  11823.9  108.549
 24.9076  11547.4  107.309
 25.1056  11291.8  106.57
 25.3036  11312.7  106.165
 25.5016  11316  106.224
 25.6996  11364.7  106.031
 25.8976  11248.5  105.93
 26.0956  11343.9  106.393
 26.2936  11117  104.959
 26.4916  11340.4  105.895
 26.6896  10939.2  104.305
 26.8876  10717.5  103.102
 27.0856  10866.3  103.864
 27.2836  10652  102.773
 27.4816  10575.7  102.287
 27.6796  10578.4  102.683
 27.8776  10352  101.437
 28.0756  10451.2  102.203
 28.2736  10278.3  100.939
 28.4716  10078.5  100.003
 28.6696  10193.7  100.418
 28.8676  10008.4  99.8454
 29.0656  9973.55  99.672
 29.2636  9933.89  99.2473
 29.4616  9924.97  99.373
 29.6596  9845.3  98.5354
 29.8576  9724.75  98.6217
 30.0556  9801.14  98.8863
 30.2536  9936.03  99.3511
 30.4516  9728.76  97.9927
 30.6496  9664.29  97.3905
 30.8476  9666.16  97.8467
 31.0456  9517.47  97.0599
 31.2436  9477.01  96.1152
 31.4416  9299.6  95.37
 31.6396  9448.14  96.1745
 31.8376  9420.57  95.583
 32.0356  9335.69  95.7159
 32.2336  9298.38  94.916
 32.4316  9284.55  95.2019
 32.6296  9157.82  94.423
 32.8276  9148.47  94.1571
 33.0256  8972.63  93.3209
 33.2236  9135.16  94.318
 33.4216  9136.33  94.0048
 33.6196  9149.07  94.3609
 33.8176  9034.52  93.9386
 34.0156  8908.38  92.8913
 34.2136  8934.91  93.075
 34.4116  8763.61  92.4436
 34.6096  8818.12  92.4926
 34.8076  8698.65  92.2752
 35.0056  8752  92.2475
 35.2036  8619.81  91.7555
 35.4016  8656.38  91.8658
 35.5996  8605.09  91.6354
 35.7976  8588.23  91.8244
 35.9956  8579.09  91.411
 36.1936  8509.78  90.9156
 36.3916  8438.37  90.6756
 36.5896  8413.76  91.5499
 36.7876  8501.3  91.4162
 36.9856  8363.83  90.6941
 37.1836  8416.71  90.0784
 37.3816  8321.44  89.9357
 37.5796  8184.41  90.9341
 37.7776  8202.21  89.4141
 37.9756  8216.2  89.3679
 38.1736  8301.1  90.0274
 38.3716  8189.76  89.6972
 38.5696  8094.78  89.5398
 38.7676  8031.71  88.695
 38.9656  8025.15  88.2917
 39.1636  7977.02  88.296
 39.3616  8069.76  88.725
 39.5596  7962.59  88.9778
 39.7576  7870.8  87.8527
 39.9556  8116.47  88.8525
 40.1536  8178.97  89.4052
 40.3516  8127.47  89.1278
 40.5496  8154.92  89.5287
 40.7476  8201.02  89.7991
 40.9456  8092.75  88.951
 41.1436  8050.7  88.4486
 41.3416  8101.4  89.0198
 41.5396  7972.04  88.0778
 41.7376  8079.8  89.0117
 41.9356  7947.71  88.1405
 42.1336  8051.32  88.8676
 42.3316  7972.13  88.6185
 42.5296  7966.56  88.106
 42.7276  7997.34  88.5185
 42.9256  7904.17  87.8689
 43.1236  7905.45  87.9859
 43.3216  7991.78  88.2156
 43.5196  7666.36  86.4633
 43.7176  7796.4  87.586
 43.9156  7693.08  86.901
 44.1136  7640.46  86.1557
 44.3116  7755.46  86.8198
 44.5096  7591.55  86.1938
 44.7076  7586.05  86.1009
 44.9056  7641.31  86.309
 45.1036  7607.5  85.742
 45.3016  7500.42  85.637
 45.4996  7364.65  84.7973
 45.6976  7337.74  84.8124
 45.8956  7440.98  85.2166
 46.0936  7480.81  85.3872
 46.2916  7519.53  85.6479
 46.4896  7403.9  85.0154
 46.6876  7264.39  84.9193
 46.8856  7324.37  84.5279
 47.0836  7297.04  84.6317
 47.2816  7130.32  83.521
 47.4796  7233.27  84.2339
 47.6776  7179.27  84.8677
 47.8756  7134.81  83.7735
 48.0736  7206.78  84.6619
 48.2716  7005.24  83.3174
 48.4696  7098.5  83.4494
 48.6676  7021.37  83.5497
 48.8656  7077.23  83.622
 49.0636  7031.82  83.2956
 49.2616  6971.34  82.8693
 49.4596  6927.27  82.4174
 49.6576  6954.27  82.6574
 49.8556  6900.19  82.3619
 50.0536  6986.46  83.3236
 50.2516  6892.65  82.9001
 50.4496  6837.67  82.2135
 50.6476  6936.65  82.4937
 50.8456  6832.54  81.9545
 51.0436  6718.55  81.6998
 51.2416  6699.52  81.2575
 51.4396  6647  81.3351
 51.6376  6700.33  81.4822
 51.8356  6619.42  80.6233
 52.0336  6526.78  80.5893
 52.2316  6582.54  81.2844
 52.4296  6575.77  80.9329
 52.6276  6682.41  81.6924
 52.8256  6551.1  80.4567
 53.0236  6452.02  80.4705
 53.2216  6479.73  80.6768
 53.4196  6412.04  80.1771
 53.6176  6289.17  79.8802
 53.8156  6469.58  80.6776
 54.0136  6392.61  80.379
 54.2116  6335.81  79.6921
 54.4096  6360.01  79.8826
 54.6076  6302.77  79.8764
 54.8056  6280.95  79.5228
 55.0036  6284.26  79.9404
 55.2016  6313.64  79.6783
 55.3996  6290.32  79.4863
 55.5976  6313.02  79.8285
 55.7956  6239.92  79.1708
 55.9936  6307.29  79.744
 56.1916  6227.39  79.2542
 56.3896  6274.86  79.5388
 56.5876  6277.28  80.1112
 56.7856  6218.64  79.2171
 56.9836  6137.82  78.4914
 57.1816  6265.21  79.6841
 57.3796  6252.8  79.3914
 57.5776  6305.96  79.6547
 57.7756  6127.72  79.1642
 57.9736  6213.43  79.3903
 58.1716  6117.26  79.0129
 58.3696  6127.15  78.8119
 58.5676  6296  79.3603
 58.7656  6321.35  80.203
 58.9636  6284.24  80.0056
 59.1616  6121.94  79.0735
 59.3596  6318.76  79.6131
 59.5576  6204.15  78.945
 59.7556  6233.57  79.5569
 59.9536  6309.93  79.9393
 60.1516  6330.72  80.9399
 60.1996  0.0000000E+00  0.0000000E+00