Folder: echemistpy/docs/examples/XRD/IS17_D/Data/IS17_D (part 6)

File: 17_Da_f00031.xye
# /beamlines/bl04/projects/cycle2025-II/20250340211-lsimonelli/DATA/IS17_D/17_Da_f00031.xye : mythproc.py merge -s 0.006 -l 0.5 -f /beamlines/bl04/inhouse/ff/FlatField/ff_20Nov2024rod8mm60s_17keV.raw -b True -c true -o xye /beamlines/bl04/projects/cycle2025-II/20250340211-lsimonelli/DATA/IS17_D/17_Da_00031.dat
# IsMon = [6755370, 6759495, 6757141]  IsPos = [-1.5000, -2.4885, -3.4986]
# Wave = 0.4962  CalPath /beamlines/bl04/projects/cycle2025-II/20250340211-lsimonelli/DATA/Align/Si_Pos1_25keV_f00001.cal
# Date = 2025-09-24_02:10:26 Dt = 4.8000  Bin = 0.0060  <imon> = 6757335 +/- 1690 (Min/Max) 6755370 / 6759495
# icurr 250.0901  mocoIn 1.7073E-05  mocoOut 0.8007  i15 7.07047e+06  imon 6.75734e+06  i7 9.6667  iEMpd_timer 4.8000  iEMpd_1 3.5394E-08  iEMpd_2 7.8096E-08  iEMpd_3 1.6299E-08  iEMpd_4 4.8713E-08  iEMhp_timer 4.8000  iEMhp_1 4.8865E-06  iEMhp_2 -2.5609E-08  iEMhp_3 -2.3794E-08  iEMhp_4 -2.0461E-08
#      9776
 1.7416  69429.4  263.608
 1.9396  45050.2  212.612
 2.1376  31793.5  178.611
 2.3356  28334.3  168.26
 2.5336  26679.1  163.846
 2.7316  24637.2  157.537
 2.9296  23765.4  154.888
 3.1276  23224.1  152.677
 3.3256  22937.7  151.392
 3.5236  25074.3  158.248
 3.7216  22779.9  151.915
 3.9196  22290.1  149.514
 4.1176  22237.8  149.111
 4.3156  23405  153.141
 4.5136  25869.6  159.986
 4.7116  26756.4  163.833
 4.9096  26284.2  161.826
 5.1076  26142.3  161.965
 5.3056  26414.6  162.426
 5.5036  26055.1  161.335
 5.7016  26379.6  162.288
 5.8996  26998.4  163.399
 6.0976  27852.5  167.403
 6.2956  28226.8  167.856
 6.4936  28934.6  169.155
 6.6916  29136.8  170.73
 6.8896  29772.2  172.434
 7.0876  31022.8  176.668
 7.2856  30710.1  174.923
 7.4836  30974.7  175.019
 7.6816  31501.1  177.026
 7.8796  33112  181.483
 8.0776  34597.6  186.472
 8.2756  36314.7  189.669
 8.4736  36930.8  191.07
 8.6716  36241.5  189.905
 8.8696  36135.2  190.12
 9.0676  35063.3  186.658
 9.2656  34008.2  184.501
 9.4636  33540.5  181.668
 9.6616  32785.4  180.372
 9.8596  31725.4  176.896
 10.0576  29657.5  171.676
 10.2556  29086.1  170.443
 10.4536  28223.2  167.511
 10.6516  27423.9  165.314
 10.8496  26701.4  162.55
 11.0476  25870.9  159.97
 11.2456  25107.2  158.157
 11.4436  25382.4  158.211
 11.6416  25377.7  158.556
 11.8396  23841.5  153.883
 12.0376  23849.4  153.526
 12.2356  23225.5  151.945
 12.4336  23087.2  151.023
 12.6316  22792.8  150.317
 12.8296  23248.8  151.462
 13.0276  23711.2  153.132
 13.2256  23747.7  153.611
 13.4236  23511.1  152.621
 13.6216  23478.5  152.534
 13.8196  23543.2  152.511
 14.0176  23212.1  151.717
 14.2156  22777.6  149.348
 14.4136  21612.8  146.83
 14.6116  21456  145.514
 14.8096  20774.6  143.172
 15.0076  19597.4  142.792
 15.2056  19257.7  137.446
 15.4036  18514.5  135.587
 15.6016  17967.2  132.668
 15.7996  17427  130.932
 15.9976  16704.3  131.056
 16.1956  16321.1  127.484
 16.3936  16150.6  126.005
 16.5916  15659.2  124.689
 16.7896  15844.7  125.481
 16.9876  15574.8  125.831
 17.1856  15469.1  123.796
 17.3836  14969.4  121.69
 17.5816  14542.4  120.415
 17.7796  14523.3  120.266
 17.9776  14247.4  119.898
 18.1756  14397.4  119.258
 18.3736  14371.8  119.651
 18.5716  13956.2  117.668
 18.7696  14004.9  117.45
 18.9676  13627.6  115.668
 19.1656  13530.6  115.802
 19.3636  13320.6  115.093
 19.5616  13590.9  116.425
 19.7596  13507.9  115.484
 19.9576  13823.6  116.876
 20.1556  13905.1  117.741
 20.3536  13238.7  114.273
 20.5516  13111.9  114.16
 20.7496  12581.3  111.689
 20.9476  12652.5  111.852
 21.1456  12710.4  112.422
 21.3436  12592.3  111.857
 21.5416  12470.3  111.312
 21.7396  12237.6  110.12
 21.9376  12305  110.182
 22.1356  12348.3  110.537
 22.3336  12307.4  110.591
 22.5316  12339.1  110.822
 22.7296  12357.8  110.285
 22.9276  12109.4  109.842
 23.1256  12459  110.899
 23.3236  12161.5  110.111
 23.5216  12231.5  110.099
 23.7196  12073.6  109.553
 23.9176  12111.5  109.27
 24.1156  11997.2  109.216
 24.3136  11487.1  107.637
 24.5116  11429.5  106.902
 24.7096  11134.3  105.335
 24.9076  11030.5  104.874
 25.1056  10884  104.347
 25.3036  10724.4  103.37
 25.5016  10766.7  103.616
 25.6996  10651.4  102.645
 25.8976  10584.7  102.753
 26.0956  10638.2  103.031
 26.2936  10622.3  102.598
 26.4916  10745.7  103.078
 26.6896  10236.5  100.9
 26.8876  10313.9  101.136
 27.0856  10207.6  100.62
 27.2836  10135.5  100.362
 27.4816  9954.49  99.2376
 27.6796  9871.98  99.1938
 27.8776  9888.94  99.1417
 28.0756  9850.79  99.2258
 28.2736  9857.48  98.853
 28.4716  9722.68  98.2179
 28.6696  9720.1  98.0533
 28.8676  9559.91  97.5878
 29.0656  9331.09  96.3886
 29.2636  9412.57  96.53
 29.4616  9486.13  97.1607
 29.6596  9382.59  96.2018
 29.8576  9271.2  96.3035
 30.0556  9214.71  95.8942
 30.2536  9326.09  96.2633
 30.4516  9203.15  95.301
 30.6496  9215.01  95.0875
 30.8476  9123.12  95.0499
 31.0456  9098.45  94.884
 31.2436  9134.59  94.3464
 31.4416  8953.13  93.5745
 31.6396  8918.68  93.4375
 31.8376  8893.61  92.8606
 32.0356  8842.54  93.1538
 32.2336  8775.12  92.2007
 32.4316  8707.16  92.236
 32.6296  8684.84  91.894
 32.8276  8710.38  91.8593
 33.0256  8621.78  91.4819
 33.2236  8502.48  90.9891
 33.4216  8748.57  91.9935
 33.6196  8713.57  92.09
 33.8176  8544.85  91.3591
 34.0156  8438.61  90.4159
 34.2136  8477.36  90.6619
 34.4116  8310.4  89.9046
 34.6096  8249.5  89.4581
 34.8076  8218.74  89.687
 35.0056  8278.98  89.7135
 35.2036  8236.61  89.6797
 35.4016  8240.8  89.6385
 35.5996  8229.37  89.6148
 35.7976  8068.35  88.9963
 35.9956  8237.89  89.5808
 36.1936  8027.15  88.2964
 36.3916  7980.15  88.2101
 36.5896  8066.05  90.1073
 36.7876  8045.45  88.9404
 36.9856  7939.92  88.3826
 37.1836  8055.23  88.1317
 37.3816  7953.97  87.9386
 37.5796  7845.54  89.0256
 37.7776  7748.24  86.889
 37.9756  7783.39  86.9736
 38.1736  7893.31  87.7737
 38.3716  7858.76  87.8604
 38.5696  7708.9  87.3738
 38.7676  7561.31  86.0564
 38.9656  7628.04  86.0754
 39.1636  7665.65  86.5226
 39.3616  7699.17  86.6693
 39.5596  7589.48  86.8844
 39.7576  7652.56  86.6304
 39.9556  7693.28  86.5007
 40.1536  7750.25  87.0264
 40.3516  7771.86  87.2357
 40.5496  7756.48  87.114
 40.7476  7781.22  87.4689
 40.9456  7781.71  87.2198
 41.1436  7816.09  87.1444
 41.3416  7720.54  86.9347
 41.5396  7691.13  86.5783
 41.7376  7578.47  86.2073
 41.9356  7553.66  85.9265
 42.1336  7666.51  86.713
 42.3316  7530.92  86.133
 42.5296  7558.26  85.8135
 42.7276  7668.21  86.6743
 42.9256  7588.64  86.0952
 43.1236  7582.7  86.1711
 43.3216  7624.66  86.2674
 43.5196  7444.55  85.1985
 43.7176  7418.82  85.4383
 43.9156  7442.17  85.4777
 44.1136  7318.71  84.329
 44.3116  7401.26  84.8218
 44.5096  7342.97  84.7803
 44.7076  7277.11  84.3375
 44.9056  7262.84  84.133
 45.1036  7223.81  83.5447
 45.3016  7078.48  83.1875
 45.4996  7051.97  82.9708
 45.6976  7035.95  83.048
 45.8956  7131.07  83.4192
 46.0936  7228.66  83.7534
 46.2916  7019.41  82.7481
 46.4896  7186.38  83.7548
 46.6876  6981.52  83.2443
 46.8856  6905.04  82.1873
 47.0836  6869.42  82.1031
 47.2816  6847.44  81.8536
 47.4796  6925.88  82.4327
 47.6776  6743.32  82.2415
 47.8756  6790.6  81.7299
 48.0736  6873.49  82.6605
 48.2716  6732.9  81.6431
 48.4696  6796.78  81.6352
 48.6676  6733.15  81.828
 48.8656  6758.07  81.7094
 49.0636  6760.09  81.6698
 49.2616  6588.8  80.6676
 49.4596  6656.66  80.649
 49.6576  6676.19  80.9871
 49.8556  6505.18  79.9693
 50.0536  6697.59  81.5815
 50.2516  6615.19  81.1817
 50.4496  6489.99  80.099
 50.6476  6546.5  80.1394
 50.8456  6488.12  79.8712
 51.0436  6406.42  79.788
 51.2416  6317.97  78.9152
 51.4396  6228.57  78.7413
 51.6376  6347.68  79.3083
 51.8356  6338.67  78.9058
 52.0336  6172.19  78.364
 52.2316  6344.29  79.79
 52.4296  6204.83  78.6076
 52.6276  6209.73  78.7557
 52.8256  6328.77  79.0679
 53.0236  6087.71  78.163
 53.2216  6087.74  78.1742
 53.4196  6021.45  77.6934
 53.6176  6036  78.2539
 53.8156  6046.46  77.9983
 54.0136  6032.33  78.0819
 54.2116  6022.03  77.6881
 54.4096  6127.35  78.4039
 54.6076  6039.66  78.1924
 54.8056  5956.22  77.4438
 55.0036  5955.11  77.6964
 55.2016  6047.82  77.9013
 55.3996  6011.52  77.7082
 55.5976  5995.66  77.7941
 55.7956  5922.75  77.133
 55.9936  5977.57  77.6283
 56.1916  5955.42  77.5031
 56.3896  5970.93  77.591
 56.5876  5825.02  77.1743
 56.7856  5889.81  77.0928
 56.9836  5946.7  77.2601
 57.1816  5953.95  77.6732
 57.3796  5954.12  77.4496
 57.5776  5992.64  77.6553
 57.7756  5831.72  77.2277
 57.9736  5882.97  77.2501
 58.1716  5867.99  77.3834
 58.3696  5875.76  77.1805
 58.5676  5937.55  77.0803
 58.7656  5841.23  77.1056
 58.9636  6055.99  78.5453
 59.1616  5888.18  77.5644
 59.3596  5991.12  77.5212
 59.5576  6074.26  78.1175
 59.7556  6014.48  78.1495
 59.9536  6170.25  79.0529
 60.1516  5865.5  77.9124
 60.1996  0.0000000E+00  0.0000000E+00

File: 17_Da_f00033.xye
# /beamlines/bl04/projects/cycle2025-II/20250340211-lsimonelli/DATA/IS17_D/17_Da_f00033.xye : mythproc.py merge -s 0.006 -l 0.5 -f /beamlines/bl04/inhouse/ff/FlatField/ff_20Nov2024rod8mm60s_17keV.raw -b True -c true -o xye /beamlines/bl04/projects/cycle2025-II/20250340211-lsimonelli/DATA/IS17_D/17_Da_00033.dat
# IsMon = [6769591, 6771207, 6772283]  IsPos = [-1.5000, -2.4885, -3.4986]
# Wave = 0.4962  CalPath /beamlines/bl04/projects/cycle2025-II/20250340211-lsimonelli/DATA/Align/Si_Pos1_25keV_f00001.cal
# Date = 2025-09-24_02:46:02 Dt = 4.8000  Bin = 0.0060  <imon> = 6771027 +/- 1106 (Min/Max) 6769591 / 6772283
# icurr 251.2089  mocoIn 1.7141E-05  mocoOut 0.8042  i15 7.08829e+06  imon 6.77103e+06  i7 6.6667  iEMpd_timer 4.8000  iEMpd_1 3.5312E-08  iEMpd_2 7.8308E-08  iEMpd_3 1.6802E-08  iEMpd_4 4.8009E-08  iEMhp_timer 4.8000  iEMhp_1 4.9090E-06  iEMhp_2 -2.6292E-08  iEMhp_3 -2.3824E-08  iEMhp_4 -2.1552E-08
#      9776
 1.7416  70220.6  265.096
 1.9396  45947.6  214.71
 2.1376  32220.4  179.799
 2.3356  28752.6  169.491
 2.5336  26627.3  163.681
 2.7316  25139.3  159.142
 2.9296  24188.2  156.266
 3.1276  23516.1  153.628
 3.3256  23164  152.149
 3.5236  25057.5  158.201
 3.7216  22959.3  152.513
 3.9196  22580.7  150.489
 4.1176  22234.2  149.105
 4.3156  23580.5  153.71
 4.5136  26171.3  160.922
 4.7116  27222.7  165.257
 4.9096  26586.1  162.753
 5.1076  26205.8  162.16
 5.3056  26628.6  163.085
 5.5036  26240.8  161.907
 5.7016  26680.7  163.213
 5.8996  27346  164.456
 6.0976  28009.3  167.872
 6.2956  28350.2  168.225
 6.4936  29022.8  169.407
 6.6916  29321.9  171.27
 6.8896  30208.8  173.705
 7.0876  31093.4  176.868
 7.2856  30754.5  175.05
 7.4836  31177.8  175.594
 7.6816  31986.2  178.383
 7.8796  33236.8  181.827
 8.0776  34765.7  186.929
 8.2756  36286.9  189.587
 8.4736  37149.8  191.651
 8.6716  36239.3  189.91
 8.8696  35880.9  189.454
 9.0676  35195.8  187
 9.2656  34167.6  184.928
 9.4636  33513.1  181.581
 9.6616  33009.9  180.978
 9.8596  31799.3  177.11
 10.0576  30105.7  172.98
 10.2556  29097.4  170.488
 10.4536  28076.3  167.084
 10.6516  27237.3  164.753
 10.8496  26640.2  162.36
 11.0476  25884.6  160.019
 11.2456  25182.1  158.396
 11.4436  25378.6  158.204
 11.6416  25548.1  159.085
 11.8396  23862.9  153.952
 12.0376  23911.7  153.729
 12.2356  23258.5  152.058
 12.4336  23262.5  151.595
 12.6316  22965.5  150.884
 12.8296  23302.6  151.636
 13.0276  23845.3  153.564
 13.2256  23726.6  153.547
 13.4236  23656.9  153.097
 13.6216  23678.6  153.181
 13.8196  23658.1  152.885
 14.0176  23368.4  152.225
 14.2156  22838.4  149.552
 14.4136  21723  147.204
 14.6116  21519  145.728
 14.8096  20828.5  143.354
 15.0076  19562.5  142.646
 15.2056  19472.9  138.214
 15.4036  18370.1  135.057
 15.6016  18207.3  133.554
 15.7996  17771.9  132.221
 15.9976  16946.8  132.022
 16.1956  16232.2  127.127
 16.3936  16117.5  125.864
 16.5916  15745.3  125.024
 16.7896  15646.5  124.685
 16.9876  15653.2  126.153
 17.1856  15627.1  124.433
 17.3836  15127  122.331
 17.5816  14551.4  120.46
 17.7796  14342  119.523
 17.9776  14203.5  119.713
 18.1756  14414.5  119.324
 18.3736  14308.1  119.39
 18.5716  14004.5  117.87
 18.7696  13966.8  117.286
 18.9676  13663.6  115.819
 19.1656  13565.8  115.941
 19.3636  13577.5  116.204
 19.5616  13338.1  115.338
 19.7596  13635.3  116.033
 19.9576  13872.9  117.079
 20.1556  14217.1  119.058
 20.3536  13456.4  115.208
 20.5516  13042  113.864
 20.7496  12718.2  112.298
 20.9476  12637.8  111.783
 21.1456  12780.8  112.734
 21.3436  12583.7  111.813
 21.5416  12425.7  111.105
 21.7396  12396.7  110.836
 21.9376  12298.9  110.174
 22.1356  12369.4  110.63
 22.3336  12196.4  110.091
 22.5316  12338.2  110.841
 22.7296  12540.4  111.1
 22.9276  12205.8  110.281
 23.1256  12480.5  110.993
 23.3236  12300.8  110.749
 23.5216  12252.6  110.19
 23.7196  12086.9  109.605
 23.9176  12043.4  108.957
 24.1156  11865.7  108.608
 24.3136  11508.9  107.745
 24.5116  11766  108.471
 24.7096  11133.9  105.339
 24.9076  11127.9  105.337
 25.1056  10906.9  104.464
 25.3036  10786.5  103.675
 25.5016  10764.4  103.596
 25.6996  10791.4  103.318
 25.8976  10505.1  102.37
 26.0956  10675.4  103.211
 26.2936  10640.2  102.686
 26.4916  10685.4  102.797
 26.6896  10188.6  100.66
 26.8876  10272.3  100.929
 27.0856  10447.6  101.799
 27.2836  10107.1  100.219
 27.4816  9936  99.145
 27.6796  9961.14  99.6405
 27.8776  9886.67  99.1284
 28.0756  9902.89  99.49
 28.2736  9900.38  99.0669
 28.4716  9620.03  97.7021
 28.6696  9656.01  97.7353
 28.8676  9470.65  97.1339
 29.0656  9428.56  96.8953
 29.2636  9513.09  97.0451
 29.4616  9356.82  96.4988
 29.6596  9322.65  95.8959
 29.8576  9239.57  96.1397
 30.0556  9355.57  96.6219
 30.2536  9348.06  96.3769
 30.4516  9163.45  95.0864
 30.6496  9214.27  95.0791
 30.8476  9142.13  95.145
 31.0456  9070.15  94.7335
 31.2436  9031.31  93.8088
 31.4416  8971.67  93.6724
 31.6396  9071.86  94.2448
 31.8376  8985.8  93.3458
 32.0356  8863.66  93.2657
 32.2336  8852.19  92.6041
 32.4316  8827.19  92.8725
 32.6296  8764.96  92.3178
 32.8276  8793.04  92.3052
 33.0256  8636.97  91.5618
 33.2236  8575.54  91.377
 33.4216  8690.41  91.6857
 33.6196  8629.54  91.65
 33.8176  8565.09  91.4642
 34.0156  8488.26  90.6752
 34.2136  8437.05  90.4445
 34.4116  8429.09  90.5488
 34.6096  8357.5  90.0498
 34.8076  8251.46  89.8739
 35.0056  8275.39  89.6992
 35.2036  8289.29  89.9836
 35.4016  8273.04  89.817
 35.5996  8109.16  88.9559
 35.7976  8126.82  89.3221
 35.9956  8214.56  89.4552
 36.1936  8149.91  88.9695
 36.3916  8020.78  88.4376
 36.5896  7991.71  89.6895
 36.7876  8001.95  88.701
 36.9856  7942.79  88.3954
 37.1836  7936.95  87.4836
 37.3816  8022.68  88.3157
 37.5796  7776.02  88.633
 37.7776  7833.93  87.3558
 37.9756  7788.13  86.9953
 38.1736  7871.87  87.6555
 38.3716  7710.27  87.0187
 38.5696  7738.31  87.5416
 38.7676  7679.36  86.7303
 38.9656  7659.73  86.2585
 39.1636  7733.66  86.9151
 39.3616  7784.1  87.149
 39.5596  7757.64  87.836
 39.7576  7631.55  86.503
 39.9556  7710.71  86.599
 40.1536  7801.29  87.3094
 40.3516  7760.6  87.1733
 40.5496  7773.98  87.214
 40.7476  7834.51  87.7672
 40.9456  7796.94  87.3094
 41.1436  7819.29  87.1605
 41.3416  7761.13  87.1639
 41.5396  7670.27  86.4665
 41.7376  7639.03  86.5488
 41.9356  7550.06  85.906
 42.1336  7687.14  86.8306
 42.3316  7601.71  86.5387
 42.5296  7575.16  85.9111
 42.7276  7606.6  86.3269
 42.9256  7572.5  86.0067
 43.1236  7526.39  85.8497
 43.3216  7618.8  86.2325
 43.5196  7500.13  85.5217
 43.7176  7462.13  85.6889
 43.9156  7325.34  84.8102
 44.1136  7282.05  84.1201
 44.3116  7364.89  84.6117
 44.5096  7405.6  85.1429
 44.7076  7328.99  84.6373
 44.9056  7315.72  84.4309
 45.1036  7223.81  83.5385
 45.3016  7159.28  83.6548
 45.4996  7141.66  83.4886
 45.6976  7070  83.2372
 45.8956  7172.83  83.6691
 46.0936  7144.77  83.267
 46.2916  7028.88  82.8086
 46.4896  7250.17  84.1367
 46.6876  7055.26  83.6865
 46.8856  6968.02  82.5626
 47.0836  6972.71  82.7161
 47.2816  6869.53  81.9849
 47.4796  6944.42  82.5358
 47.6776  6739.33  82.2268
 47.8756  6918.68  82.5005
 48.0736  6921.06  82.9446
 48.2716  6622.53  80.9725
 48.4696  6884.43  82.1522
 48.6676  6746.95  81.911
 48.8656  6750.25  81.6604
 49.0636  6811.1  81.98
 49.2616  6600.2  80.7324
 49.4596  6730.85  81.0987
 49.6576  6727.7  81.3034
 49.8556  6682.94  81.0539
 50.0536  6552.47  80.6976
 50.2516  6612.92  81.1694
 50.4496  6571.86  80.6061
 50.6476  6559.66  80.2151
 50.8456  6602.25  80.568
 51.0436  6366.37  79.5398
 51.2416  6409.13  79.4751
 51.4396  6255.46  78.9153
 51.6376  6303.64  79.0454
 51.8356  6401.2  79.2892
 52.0336  6265.06  78.9439
 52.2316  6257.45  79.238
 52.4296  6334.27  79.427
 52.6276  6241.53  78.9517
 52.8256  6309.76  78.948
 53.0236  6182.4  78.7726
 53.2216  6134.3  78.4742
 53.4196  6089.22  78.1353
 53.6176  6077.79  78.5277
 53.8156  6063.35  78.108
 54.0136  6173.39  78.9913
 54.2116  6068.47  77.9866
 54.4096  6101.54  78.2458
 54.6076  6121.23  78.7145
 54.8056  5995.43  77.6985
 55.0036  5983.05  77.876
 55.2016  6038.1  77.8416
 55.3996  5997.31  77.619
 55.5976  6064.43  78.2352
 55.7956  6004.3  77.6649
 55.9936  5990.48  77.7131
 56.1916  6087.73  78.3528
 56.3896  6030.65  77.9818
 56.5876  5841.73  77.2847
 56.7856  5972.92  77.6354
 56.9836  5844.2  76.5903
 57.1816  6007.69  78.0246
 57.3796  5974.59  77.5819
 57.5776  5979.6  77.5787
 57.7756  6002.3  78.3474
 57.9736  5863.3  77.1181
 58.1716  5951.46  77.9336
 58.3696  5928.73  77.5394
 58.5676  5930.99  77.0405
 58.7656  5990.07  78.0846
 58.9636  6028.59  78.3706
 59.1616  5945.09  77.948
 59.3596  6060.94  77.9658
 59.5576  5977.42  77.484
 59.7556  5852.69  77.083
 59.9536  5944.84  77.5872
 60.1516  6058.43  79.175
 60.1996  0.0000000E+00  0.0000000E+00