Folder: echemistpy/docs/examples/XAS/Echem/Operando3/Cell3_Buffers+Fe2+-2

Note: docs/README.md
# 文档概览

`docs/Characterization/` 目录保留了 EQCM、XRD、XPS 等实验表征资料，可在撰写技术文档或学术报告时引用。
后续若集成 Sphinx/MkDocs，可在本目录下新增 `conf.py` 或 `mkdocs.yml`。

File: HAC_NH3_02_01_OCV_C04.mpt
EC-Lab ASCII FILE
Nb header lines : 53

Open Circuit Voltage

Run on channel : 4 (SN 52456)
User :
CE vs. WE compliance from -10 V to 10 V
Electrode connection : standard
Potential control : Ewe
Ewe ctrl range : min = 0.00 V, max = 3.00 V
Safety Limits :
	Do not start on E overload
Acquisition started on : 12/12/2025 16:13:07.309
Technique started on : 12/12/2025 16:13:07.809
Loaded Setting File :  L:\projects\cycle2025-II\20250340369-skhabazian\EC_lab\20251211.EMD.mps
Saved on :
	File : HAC_NH3_02_01_OCV_C04.mpr
	Directory : L:\projects\cycle2025-II\20250340369-skhabazian\EC_lab\Cell3_Buffers-2\
	Host : 84.89.228.57
Device : VSP (SN 2155)
Address : 10.0.48.130
EC-LAB for windows v11.61 (software)
Internet server v11.61 (firmware)
Command interpretor v11.61 (firmware)
Electrode material :
Initial state :
Electrolyte :
Comments :
Mass of active material : 0.001 mg
 at x = 0.000
Molecular weight of active material (at x = 0) : 0.001 g/mol
Atomic weight of intercalated ion : 0.001 g/mol
Acquisition started at : xo = 0.000
Number of e- transfered per intercalated ion : 1
for DX = 1, DQ = 26.802 mA.h
Battery capacity : 0.000 A.h
Electrode surface area : 0.000 cm²
Characteristic mass : 0.001 g
Volume (V) : 0.001 cm³
Text export
   Mode : Standard
   Time format : Absolute MMDDYYYY
Cycle Definition : Charge/Discharge alternance
tR (h:m:s)          20:00:30.0000
dER/dt (mV/h)       0.0
record              <Ewe>
dER (mV)            0.00
dtR (s)             0.5000
E range min (V)     0.000
E range max (V)     3.000

mode	error	time/s	<Ewe/V>
3	0	12/12/2025 16:13:07.8090	1.1388
3	0	12/12/2025 16:13:24.3090	1.13879
3	0	12/12/2025 16:13:40.8090	1.13875
3	0	12/12/2025 16:13:57.3090	1.13872
3	0	12/12/2025 16:14:13.8090	1.13848
3	0	12/12/2025 16:14:30.3090	1.13844
3	0	12/12/2025 16:14:46.8090	1.13852
3	0	12/12/2025 16:15:03.3090	1.13815
3	0	12/12/2025 16:15:19.8090	1.13758
3	0	12/12/2025 16:15:36.3090	1.13787
3	0	12/12/2025 16:15:52.8090	1.13787
3	0	12/12/2025 16:16:09.3090	1.13788
3	0	12/12/2025 16:16:25.8090	1.13801
3	0	12/12/2025 16:16:42.3090	1.13796
3	0	12/12/2025 16:16:58.8090	1.13795
3	0	12/12/2025 16:17:15.3090	1.13799
3	0	12/12/2025 16:17:31.8090	1.13798
3	0	12/12/2025 16:17:48.3090	1.13804
3	0	12/12/2025 16:18:04.8090	1.13801
3	0	12/12/2025 16:18:21.3090	1.13798
3	0	12/12/2025 16:18:37.8090	1.13793
3	0	12/12/2025 16:18:54.3090	1.13794
3	0	12/12/2025 16:19:10.8090	1.13791
3	0	12/12/2025 16:19:27.3090	1.13786
3	0	12/12/2025 16:19:43.8090	1.13778
3	0	12/12/2025 16:20:00.3090	1.13738
3	0	12/12/2025 16:20:16.8090	1.13727
3	0	12/12/2025 16:20:33.3090	1.13747
3	0	12/12/2025 16:20:49.8090	1.13745
3	0	12/12/2025 16:21:06.3090	1.13745
3	0	12/12/2025 16:21:22.8090	1.13766
3	0	12/12/2025 16:21:39.3090	1.13778
3	0	12/12/2025 16:21:55.8090	1.13771
3	0	12/12/2025 16:22:12.3090	1.13785
3	0	12/12/2025 16:22:28.8090	1.13807
3	0	12/12/2025 16:22:45.3090	1.13829
3	0	12/12/2025 16:23:01.8090	1.13827
3	0	12/12/2025 16:23:18.3090	1.13832
3	0	12/12/2025 16:23:34.8090	1.13835
3	0	12/12/2025 16:23:51.3090	1.13836
3	0	12/12/2025 16:24:07.8090	1.13841
3	0	12/12/2025 16:24:24.3090	1.1384
3	0	12/12/2025 16:24:40.8090	1.13837
3	0	12/12/2025 16:24:57.3090	1.1384
3	0	12/12/2025 16:25:13.8090	1.13817
3	0	12/12/2025 16:25:30.3090	1.13813
3	0	12/12/2025 16:25:46.8090	1.13805
3	0	12/12/2025 16:26:03.3090	1.13803
3	0	12/12/2025 16:26:19.8090	1.13799
3	0	12/12/2025 16:26:36.3090	1.13798
3	0	12/12/2025 16:26:52.8090	1.1378
3	0	12/12/2025 16:27:09.3090	1.13791
3	0	12/12/2025 16:27:25.8090	1.13788
3	0	12/12/2025 16:27:42.3090	1.13775
3	0	12/12/2025 16:27:58.8090	1.13769
3	0	12/12/2025 16:28:15.3090	1.13767
3	0	12/12/2025 16:28:31.8090	1.13707
3	0	12/12/2025 16:28:48.3090	1.13704
3	0	12/12/2025 16:29:04.8090	1.13722
3	0	12/12/2025 16:29:21.3090	1.13798
3	0	12/12/2025 16:29:37.8090	1.1381
3	0	12/12/2025 16:29:54.3090	1.13841
3	0	12/12/2025 16:30:10.8090	1.13844
3	0	12/12/2025 16:30:27.3090	1.13847
3	0	12/12/2025 16:30:43.8090	1.13848
3	0	12/12/2025 16:31:00.3090	1.13847
3	0	12/12/2025 16:31:16.8090	1.13848
3	0	12/12/2025 16:31:33.3090	1.13829
3	0	12/12/2025 16:31:49.8090	1.13831
3	0	12/12/2025 16:32:06.3090	1.13832
3	0	12/12/2025 16:32:22.8090	1.13833
3	0	12/12/2025 16:32:39.3090	1.13833
3	0	12/12/2025 16:32:55.8090	1.13834
3	0	12/12/2025 16:33:12.3090	1.13832
3	0	12/12/2025 16:33:28.8090	1.13827
3	0	12/12/2025 16:33:45.3090	1.13826
3	0	12/12/2025 16:34:01.8090	1.13828
3	0	12/12/2025 16:34:18.3090	1.13827
3	0	12/12/2025 16:34:34.8090	1.13828
3	0	12/12/2025 16:34:51.3090	1.13828
3	0	12/12/2025 16:35:07.8090	1.13831
3	0	12/12/2025 16:35:24.3090	1.13825
3	0	12/12/2025 16:35:40.8090	1.13813
3	0	12/12/2025 16:35:57.3090	1.1381
3	0	12/12/2025 16:36:13.8090	1.13832
3	0	12/12/2025 16:36:30.3090	1.13816
3	0	12/12/2025 16:36:46.8090	1.13816
3	0	12/12/2025 16:37:03.3090	1.1382
3	0	12/12/2025 16:37:19.8090	1.13818
3	0	12/12/2025 16:37:36.3090	1.1381
3	0	12/12/2025 16:37:52.8090	1.13825
3	0	12/12/2025 16:38:09.3090	1.1383
3	0	12/12/2025 16:38:25.8090	1.13795
3	0	12/12/2025 16:38:42.3090	1.13805
3	0	12/12/2025 16:38:58.8090	1.13808
3	0	12/12/2025 16:39:15.3090	1.13796
3	0	12/12/2025 16:39:31.8090	1.13784
3	0	12/12/2025 16:39:48.3090	1.13762
3	0	12/12/2025 16:40:04.8090	1.13782
3	0	12/12/2025 16:40:21.3090	1.13773
3	0	12/12/2025 16:40:37.8090	1.13782
3	0	12/12/2025 16:40:54.3090	1.13777
3	0	12/12/2025 16:41:10.8090	1.13733
3	0	12/12/2025 16:41:27.3090	1.13721
3	0	12/12/2025 16:41:43.8090	1.13728
3	0	12/12/2025 16:42:00.3090	1.13746
3	0	12/12/2025 16:42:16.8090	1.13753
3	0	12/12/2025 16:42:33.3090	1.13764
3	0	12/12/2025 16:42:49.8090	1.13756
3	0	12/12/2025 16:43:06.3090	1.13738
3	0	12/12/2025 16:43:22.8090	1.13745
3	0	12/12/2025 16:43:39.3090	1.1376
3	0	12/12/2025 16:43:55.8090	1.13759
3	0	12/12/2025 16:44:12.3090	1.13726
3	0	12/12/2025 16:44:28.8090	1.1374
3	0	12/12/2025 16:44:45.3090	1.13731
3	0	12/12/2025 16:45:01.8090	1.13767
3	0	12/12/2025 16:45:18.3090	1.13782
3	0	12/12/2025 16:45:34.8090	1.1379
3	0	12/12/2025 16:45:51.3090	1.13781
3	0	12/12/2025 16:46:07.8089	1.1377
3	0	12/12/2025 16:46:24.3089	1.13768
3	0	12/12/2025 16:46:40.8089	1.13764
3	0	12/12/2025 16:46:57.3089	1.13737
3	0	12/12/2025 16:47:13.8089	1.13745
3	0	12/12/2025 16:47:30.3089	1.13717
3	0	12/12/2025 16:47:46.8089	1.13672
3	0	12/12/2025 16:48:03.3089	1.13742
3	0	12/12/2025 16:48:19.8089	1.13573
3	0	12/12/2025 16:48:36.3089	1.13651
3	0	12/12/2025 16:48:52.8089	1.13708
3	0	12/12/2025 16:49:09.3089	1.13662
3	0	12/12/2025 16:49:25.8089	1.13692
3	0	12/12/2025 16:49:42.3089	1.13687
3	0	12/12/2025 16:49:58.8089	1.13704
3	0	12/12/2025 16:50:15.3089	1.13715
3	0	12/12/2025 16:50:31.8089	1.13685
3	0	12/12/2025 16:50:48.3089	1.13602
3	0	12/12/2025 16:51:04.8089	1.13614
3	0	12/12/2025 16:51:21.3089	1.13697
3	0	12/12/2025 16:51:37.8089	1.13726
3	0	12/12/2025 16:51:54.3089	1.13732
3	0	12/12/2025 16:52:10.8089	1.13723
3	0	12/12/2025 16:52:27.3089	1.13716
3	0	12/12/2025 16:52:43.8089	1.13706
3	0	12/12/2025 16:53:00.3089	1.13648
3	0	12/12/2025 16:53:16.8089	1.13322
3	0	12/12/2025 16:53:33.3089	1.12831
3	0	12/12/2025 16:53:49.8089	1.13628
3	0	12/12/2025 16:54:06.3089	1.1343
3	0	12/12/2025 16:54:22.8089	1.13691
3	0	12/12/2025 16:54:39.3089	1.12392
3	0	12/12/2025 16:54:55.8089	1.12707
3	0	12/12/2025 16:55:12.3089	1.13462
3	0	12/12/2025 16:55:28.8089	1.13418
3	0	12/12/2025 16:55:45.3089	1.13386
3	0	12/12/2025 16:56:01.8089	1.13595
3	0	12/12/2025 16:56:18.3089	1.13694
3	0	12/12/2025 16:56:34.8089	1.13711
3	0	12/12/2025 16:56:51.3089	1.13723
3	0	12/12/2025 16:57:07.8089	1.13724
3	0	12/12/2025 16:57:24.3089	1.13726
3	0	12/12/2025 16:57:40.8089	1.1373
3	0	12/12/2025 16:57:57.3089	1.13734
3	0	12/12/2025 16:58:13.8089	1.13696
3	0	12/12/2025 16:58:30.3089	1.1366
3	0	12/12/2025 16:58:46.8089	1.1364
3	0	12/12/2025 16:59:03.3089	1.13652
3	0	12/12/2025 16:59:19.8089	1.13652
3	0	12/12/2025 16:59:36.3089	1.13653
3	0	12/12/2025 16:59:52.8089	1.13437
3	0	12/12/2025 17:00:09.3089	1.1325
3	0	12/12/2025 17:00:25.8089	1.13573
3	0	12/12/2025 17:00:42.3089	1.13635
3	0	12/12/2025 17:00:58.8089	1.13643
3	0	12/12/2025 17:01:15.3089	1.1362
3	0	12/12/2025 17:01:31.8089	1.13606
3	0	12/12/2025 17:01:48.3089	1.13661
3	0	12/12/2025 17:02:04.8089	1.13701
3	0	12/12/2025 17:02:21.3089	1.13698
3	0	12/12/2025 17:02:37.8089	1.13705
3	0	12/12/2025 17:02:54.3089	1.1371
3	0	12/12/2025 17:03:10.8089	1.13714
3	0	12/12/2025 17:03:27.3089	1.13711
3	0	12/12/2025 17:03:43.8089	1.13715
3	0	12/12/2025 17:04:00.3089	1.13712
3	0	12/12/2025 17:04:16.8089	1.13707
3	0	12/12/2025 17:04:33.3089	1.13714
3	0	12/12/2025 17:04:49.8089	1.13714
3	0	12/12/2025 17:05:06.3089	1.13702
3	0	12/12/2025 17:05:22.8089	1.13682
3	0	12/12/2025 17:05:39.3089	1.13659
3	0	12/12/2025 17:05:55.8089	1.13451
3	0	12/12/2025 17:06:12.3089	1.13468
3	0	12/12/2025 17:06:28.8089	1.13528
3	0	12/12/2025 17:06:45.3089	1.13453
3	0	12/12/2025 17:07:01.8089	1.13489
3	0	12/12/2025 17:07:18.3089	1.13373
3	0	12/12/2025 17:07:34.8089	1.12664
3	0	12/12/2025 17:07:51.3089	1.13088
3	0	12/12/2025 17:08:07.8089	1.13032
3	0	12/12/2025 17:08:24.3089	1.12859
3	0	12/12/2025 17:08:40.8089	1.09976
3	0	12/12/2025 17:08:57.3089	1.13678
3	0	12/12/2025 17:09:13.8089	1.13615
3	0	12/12/2025 17:09:30.3089	1.13615
3	0	12/12/2025 17:09:46.8089	1.13627
3	0	12/12/2025 17:10:03.3089	1.13599
3	0	12/12/2025 17:10:19.8089	1.1339
3	0	12/12/2025 17:10:36.3089	1.13329
3	0	12/12/2025 17:10:52.8089	1.13435
3	0	12/12/2025 17:11:09.3089	1.13213
3	0	12/12/2025 17:11:25.8089	1.13062
3	0	12/12/2025 17:11:42.3089	1.13077
3	0	12/12/2025 17:11:58.8089	1.13534
3	0	12/12/2025 17:12:15.3089	1.13527
3	0	12/12/2025 17:12:31.8089	1.13473
3	0	12/12/2025 17:12:48.3089	1.12135
3	0	12/12/2025 17:13:04.8089	1.00775
3	0	12/12/2025 17:13:21.3089	1.08688
3	0	12/12/2025 17:13:37.8089	1.10793
3	0	12/12/2025 17:13:54.3089	1.12612
3	0	12/12/2025 17:14:10.8089	1.13283
3	0	12/12/2025 17:14:27.3089	1.13458
3	0	12/12/2025 17:14:43.8089	1.13596
3	0	12/12/2025 17:15:00.3089	1.13645
3	0	12/12/2025 17:15:16.8089	1.13658
3	0	12/12/2025 17:15:33.3089	1.13669
3	0	12/12/2025 17:15:49.8089	1.13666
3	0	12/12/2025 17:16:06.3089	1.13662
3	0	12/12/2025 17:16:22.8089	1.13648
3	0	12/12/2025 17:16:39.3089	1.13613
3	0	12/12/2025 17:16:55.8089	1.1357
3	0	12/12/2025 17:17:12.3089	1.1354
3	0	12/12/2025 17:17:28.8089	1.13545
3	0	12/12/2025 17:17:45.3089	1.13658
3	0	12/12/2025 17:18:01.8089	1.13656
3	0	12/12/2025 17:18:18.3089	1.13651
3	0	12/12/2025 17:18:34.8089	1.13638
3	0	12/12/2025 17:18:51.3089	1.13635
3	0	12/12/2025 17:19:07.8089	1.13638
3	0	12/12/2025 17:19:24.3089	1.13639
3	0	12/12/2025 17:19:40.8089	1.13638
3	0	12/12/2025 17:19:57.3089	1.13645
3	0	12/12/2025 17:20:13.8089	1.13626
3	0	12/12/2025 17:20:30.3089	1.13619
3	0	12/12/2025 17:20:46.8089	1.13607
3	0	12/12/2025 17:21:03.3089	1.13606
3	0	12/12/2025 17:21:19.8089	1.13612
3	0	12/12/2025 17:21:36.3089	1.13601
3	0	12/12/2025 17:21:52.8089	1.13612
3	0	12/12/2025 17:22:09.3089	1.13608
3	0	12/12/2025 17:22:25.8089	1.13615
3	0	12/12/2025 17:22:42.3089	1.13614
3	0	12/12/2025 17:22:58.8089	1.13612
3	0	12/12/2025 17:23:15.3089	1.13607
3	0	12/12/2025 17:23:31.8089	1.13606
3	0	12/12/2025 17:23:48.3089	1.13217
3	0	12/12/2025 17:24:04.8089	1.13468
3	0	12/12/2025 17:24:21.3089	1.13516
3	0	12/12/2025 17:24:37.8089	1.13492
3	0	12/12/2025 17:24:54.3089	1.13468
3	0	12/12/2025 17:25:10.8089	1.13531
3	0	12/12/2025 17:25:27.3089	1.13583
3	0	12/12/2025 17:25:43.8089	1.13577
3	0	12/12/2025 17:26:00.3089	1.13558
3	0	12/12/2025 17:26:14.6071	1.13545