Folder: echemistpy/docs/examples/XAS/Echem/Operando3/Cell4_Buffers-2

Note: docs/README.md
# 文档概览

`docs/Characterization/` 目录保留了 EQCM、XRD、XPS 等实验表征资料，可在撰写技术文档或学术报告时引用。
后续若集成 Sphinx/MkDocs，可在本目录下新增 `conf.py` 或 `mkdocs.yml`。

File: HAC_NH3_Fe_01_01_OCV_C03.mpt
EC-Lab ASCII FILE
Nb header lines : 53

Open Circuit Voltage

Run on channel : 3 (SN 52371)
User :
CE vs. WE compliance from -10 V to 10 V
Electrode connection : standard
Potential control : Ewe
Ewe ctrl range : min = 0.00 V, max = 3.00 V
Safety Limits :
	Do not start on E overload
Acquisition started on : 12/12/2025 16:12:47.609
Technique started on : 12/12/2025 16:12:48.109
Loaded Setting File :  L:\projects\cycle2025-II\20250340369-skhabazian\EC_lab\Cell C\CellC_01.mps
Saved on :
	File : HAC_NH3_Fe_01_01_OCV_C03.mpr
	Directory : L:\projects\cycle2025-II\20250340369-skhabazian\EC_lab\Cell4_Buffers+Fe2+-2\
	Host : 84.89.228.57
Device : VSP (SN 2155)
Address : 10.0.48.130
EC-LAB for windows v11.61 (software)
Internet server v11.61 (firmware)
Command interpretor v11.61 (firmware)
Electrode material :
Initial state :
Electrolyte :
Comments :
Mass of active material : 0.001 mg
 at x = 0.000
Molecular weight of active material (at x = 0) : 0.001 g/mol
Atomic weight of intercalated ion : 0.001 g/mol
Acquisition started at : xo = 0.000
Number of e- transfered per intercalated ion : 1
for DX = 1, DQ = 26.802 mA.h
Battery capacity : 0.000 A.h
Electrode surface area : 0.000 cm²
Characteristic mass : 0.001 g
Volume (V) : 0.001 cm³
Text export
   Mode : Standard
   Time format : Absolute MMDDYYYY
Cycle Definition : Charge/Discharge alternance
tR (h:m:s)          20:00:30.0000
dER/dt (mV/h)       0.0
record              <Ewe>
dER (mV)            0.00
dtR (s)             0.5000
E range min (V)     0.000
E range max (V)     3.000

mode	error	time/s	<Ewe/V>
3	0	12/12/2025 16:12:48.1090	1.22435
3	0	12/12/2025 16:13:04.6090	1.22435
3	0	12/12/2025 16:13:21.1090	1.22388
3	0	12/12/2025 16:13:37.6090	1.22392
3	0	12/12/2025 16:13:54.1090	1.22401
3	0	12/12/2025 16:14:10.6090	1.22406
3	0	12/12/2025 16:14:27.1090	1.2241
3	0	12/12/2025 16:14:43.6090	1.2242
3	0	12/12/2025 16:15:00.1090	1.22427
3	0	12/12/2025 16:15:16.6090	1.22433
3	0	12/12/2025 16:15:33.1090	1.22438
3	0	12/12/2025 16:15:49.6090	1.22444
3	0	12/12/2025 16:16:06.1090	1.22446
3	0	12/12/2025 16:16:22.6090	1.22447
3	0	12/12/2025 16:16:39.1090	1.22452
3	0	12/12/2025 16:16:55.6090	1.22457
3	0	12/12/2025 16:17:12.1090	1.22454
3	0	12/12/2025 16:17:28.6090	1.22313
3	0	12/12/2025 16:17:45.1090	1.22364
3	0	12/12/2025 16:18:01.6090	1.22396
3	0	12/12/2025 16:18:18.1090	1.22414
3	0	12/12/2025 16:18:34.6090	1.22425
3	0	12/12/2025 16:18:51.1090	1.22431
3	0	12/12/2025 16:19:07.6090	1.22433
3	0	12/12/2025 16:19:24.1090	1.22434
3	0	12/12/2025 16:19:40.6090	1.22431
3	0	12/12/2025 16:19:57.1090	1.22434
3	0	12/12/2025 16:20:13.6090	1.22439
3	0	12/12/2025 16:20:30.1090	1.22443
3	0	12/12/2025 16:20:46.6090	1.22448
3	0	12/12/2025 16:21:03.1090	1.22452
3	0	12/12/2025 16:21:19.6090	1.22456
3	0	12/12/2025 16:21:36.1090	1.22464
3	0	12/12/2025 16:21:52.6090	1.2247
3	0	12/12/2025 16:22:09.1090	1.22473
3	0	12/12/2025 16:22:25.6090	1.22479
3	0	12/12/2025 16:22:42.1090	1.22483
3	0	12/12/2025 16:22:58.6090	1.2249
3	0	12/12/2025 16:23:15.1090	1.22496
3	0	12/12/2025 16:23:31.6090	1.22505
3	0	12/12/2025 16:23:48.1090	1.22513
3	0	12/12/2025 16:24:04.6090	1.2252
3	0	12/12/2025 16:24:21.1090	1.22527
3	0	12/12/2025 16:24:37.6090	1.22534
3	0	12/12/2025 16:24:54.1090	1.22542
3	0	12/12/2025 16:25:10.6090	1.22544
3	0	12/12/2025 16:25:27.1090	1.22549
3	0	12/12/2025 16:25:43.6090	1.22548
3	0	12/12/2025 16:26:00.1090	1.22426
3	0	12/12/2025 16:26:16.6090	1.22447
3	0	12/12/2025 16:26:33.1090	1.22449
3	0	12/12/2025 16:26:49.6090	1.22458
3	0	12/12/2025 16:27:06.1090	1.2246
3	0	12/12/2025 16:27:22.6090	1.22464
3	0	12/12/2025 16:27:39.1090	1.22468
3	0	12/12/2025 16:27:55.6090	1.22467
3	0	12/12/2025 16:28:12.1090	1.22472
3	0	12/12/2025 16:28:28.6090	1.22476
3	0	12/12/2025 16:28:45.1090	1.22477
3	0	12/12/2025 16:29:01.6090	1.22475
3	0	12/12/2025 16:29:18.1090	1.22486
3	0	12/12/2025 16:29:34.6090	1.2249
3	0	12/12/2025 16:29:51.1090	1.22493
3	0	12/12/2025 16:30:07.6090	1.22498
3	0	12/12/2025 16:30:24.1090	1.22505
3	0	12/12/2025 16:30:40.6090	1.22507
3	0	12/12/2025 16:30:57.1090	1.22512
3	0	12/12/2025 16:31:13.6090	1.22494
3	0	12/12/2025 16:31:30.1090	1.22501
3	0	12/12/2025 16:31:46.6090	1.22503
3	0	12/12/2025 16:32:03.1090	1.2251
3	0	12/12/2025 16:32:19.6090	1.22513
3	0	12/12/2025 16:32:36.1090	1.22514
3	0	12/12/2025 16:32:52.6090	1.22519
3	0	12/12/2025 16:33:09.1090	1.22521
3	0	12/12/2025 16:33:25.6090	1.22521
3	0	12/12/2025 16:33:42.1090	1.22521
3	0	12/12/2025 16:33:58.6090	1.22526
3	0	12/12/2025 16:34:15.1090	1.22528
3	0	12/12/2025 16:34:31.6090	1.22525
3	0	12/12/2025 16:34:48.1090	1.22522
3	0	12/12/2025 16:35:04.6090	1.22523
3	0	12/12/2025 16:35:21.1090	1.2252
3	0	12/12/2025 16:35:37.6090	1.22524
3	0	12/12/2025 16:35:54.1090	1.22526
3	0	12/12/2025 16:36:10.6090	1.22528
3	0	12/12/2025 16:36:27.1090	1.22537
3	0	12/12/2025 16:36:43.6090	1.22544
3	0	12/12/2025 16:37:00.1090	1.22545
3	0	12/12/2025 16:37:16.6090	1.22519
3	0	12/12/2025 16:37:33.1090	1.22521
3	0	12/12/2025 16:37:49.6090	1.2252
3	0	12/12/2025 16:38:06.1090	1.22501
3	0	12/12/2025 16:38:22.6090	1.22453
3	0	12/12/2025 16:38:39.1090	1.22461
3	0	12/12/2025 16:38:55.6090	1.22466
3	0	12/12/2025 16:39:12.1090	1.22469
3	0	12/12/2025 16:39:28.6090	1.22472
3	0	12/12/2025 16:39:45.1090	1.22474
3	0	12/12/2025 16:40:01.6090	1.22473
3	0	12/12/2025 16:40:18.1090	1.22473
3	0	12/12/2025 16:40:34.6090	1.22472
3	0	12/12/2025 16:40:51.1090	1.22474
3	0	12/12/2025 16:41:07.6090	1.22455
3	0	12/12/2025 16:41:24.1090	1.22459
3	0	12/12/2025 16:41:40.6090	1.22462
3	0	12/12/2025 16:41:57.1090	1.22381
3	0	12/12/2025 16:42:13.6090	1.22427
3	0	12/12/2025 16:42:30.1090	1.22439
3	0	12/12/2025 16:42:46.6090	1.22448
3	0	12/12/2025 16:43:03.1090	1.22451
3	0	12/12/2025 16:43:19.6090	1.22455
3	0	12/12/2025 16:43:36.1090	1.22456
3	0	12/12/2025 16:43:52.6090	1.22456
3	0	12/12/2025 16:44:09.1090	1.22455
3	0	12/12/2025 16:44:25.6090	1.22455
3	0	12/12/2025 16:44:42.1090	1.22455
3	0	12/12/2025 16:44:58.6090	1.22453
3	0	12/12/2025 16:45:15.1090	1.22453
3	0	12/12/2025 16:45:31.6090	1.22453
3	0	12/12/2025 16:45:48.1090	1.22453
3	0	12/12/2025 16:46:04.6089	1.22451
3	0	12/12/2025 16:46:21.1089	1.22451
3	0	12/12/2025 16:46:37.6089	1.22449
3	0	12/12/2025 16:46:54.1089	1.22449
3	0	12/12/2025 16:47:10.6089	1.22446
3	0	12/12/2025 16:47:27.1089	1.22444
3	0	12/12/2025 16:47:43.6089	1.22443
3	0	12/12/2025 16:48:00.1089	1.22444
3	0	12/12/2025 16:48:16.6089	1.22441
3	0	12/12/2025 16:48:33.1089	1.22443
3	0	12/12/2025 16:48:49.6089	1.22443
3	0	12/12/2025 16:49:06.1089	1.22443
3	0	12/12/2025 16:49:22.6089	1.22443
3	0	12/12/2025 16:49:39.1089	1.22441
3	0	12/12/2025 16:49:55.6089	1.22438
3	0	12/12/2025 16:50:12.1089	1.22435
3	0	12/12/2025 16:50:28.6089	1.22432
3	0	12/12/2025 16:50:45.1089	1.22429
3	0	12/12/2025 16:51:01.6089	1.22428
3	0	12/12/2025 16:51:18.1089	1.22427
3	0	12/12/2025 16:51:34.6089	1.22405
3	0	12/12/2025 16:51:51.1089	1.22406
3	0	12/12/2025 16:52:07.6089	1.22404
3	0	12/12/2025 16:52:24.1089	1.22405
3	0	12/12/2025 16:52:40.6089	1.22401
3	0	12/12/2025 16:52:57.1089	1.22397
3	0	12/12/2025 16:53:13.6089	1.22395
3	0	12/12/2025 16:53:30.1089	1.22391
3	0	12/12/2025 16:53:46.6089	1.22389
3	0	12/12/2025 16:54:03.1089	1.22388
3	0	12/12/2025 16:54:19.6089	1.22275
3	0	12/12/2025 16:54:36.1089	1.22274
3	0	12/12/2025 16:54:52.6089	1.22275
3	0	12/12/2025 16:55:09.1089	1.22221
3	0	12/12/2025 16:55:25.6089	1.22231
3	0	12/12/2025 16:55:42.1089	1.22238
3	0	12/12/2025 16:55:58.6089	1.2224
3	0	12/12/2025 16:56:15.1089	1.22226
3	0	12/12/2025 16:56:31.6089	1.22155
3	0	12/12/2025 16:56:48.1089	1.22158
3	0	12/12/2025 16:57:04.6089	1.22169
3	0	12/12/2025 16:57:21.1089	1.22175
3	0	12/12/2025 16:57:37.6089	1.22179
3	0	12/12/2025 16:57:54.1089	1.22181
3	0	12/12/2025 16:58:10.6089	1.22189
3	0	12/12/2025 16:58:27.1089	1.22196
3	0	12/12/2025 16:58:43.6089	1.22197
3	0	12/12/2025 16:59:00.1089	1.22197
3	0	12/12/2025 16:59:16.6089	1.22198
3	0	12/12/2025 16:59:33.1089	1.22196
3	0	12/12/2025 16:59:49.6089	1.22196
3	0	12/12/2025 17:00:06.1089	1.22195
3	0	12/12/2025 17:00:22.6089	1.22199
3	0	12/12/2025 17:00:39.1089	1.22204
3	0	12/12/2025 17:00:55.6089	1.22207
3	0	12/12/2025 17:01:12.1089	1.22208
3	0	12/12/2025 17:01:28.6089	1.22212
3	0	12/12/2025 17:01:45.1089	1.22214
3	0	12/12/2025 17:02:01.6089	1.22218
3	0	12/12/2025 17:02:18.1089	1.22217
3	0	12/12/2025 17:02:34.6089	1.22217
3	0	12/12/2025 17:02:51.1089	1.22216
3	0	12/12/2025 17:03:07.6089	1.22219
3	0	12/12/2025 17:03:24.1089	1.2222
3	0	12/12/2025 17:03:40.6089	1.22225
3	0	12/12/2025 17:03:57.1089	1.2223
3	0	12/12/2025 17:04:13.6089	1.22234
3	0	12/12/2025 17:04:30.1089	1.22237
3	0	12/12/2025 17:04:46.6089	1.22235
3	0	12/12/2025 17:05:03.1089	1.2224
3	0	12/12/2025 17:05:19.6089	1.22243
3	0	12/12/2025 17:05:36.1089	1.22245
3	0	12/12/2025 17:05:52.6089	1.22251
3	0	12/12/2025 17:06:09.1089	1.22253
3	0	12/12/2025 17:06:25.6089	1.22257
3	0	12/12/2025 17:06:42.1089	1.22259
3	0	12/12/2025 17:06:58.6089	1.22257
3	0	12/12/2025 17:07:15.1089	1.2226
3	0	12/12/2025 17:07:31.6089	1.22262
3	0	12/12/2025 17:07:48.1089	1.22259
3	0	12/12/2025 17:08:04.6089	1.22262
3	0	12/12/2025 17:08:21.1089	1.22262
3	0	12/12/2025 17:08:37.6089	1.22261
3	0	12/12/2025 17:08:54.1089	1.22256
3	0	12/12/2025 17:09:10.6089	1.22257
3	0	12/12/2025 17:09:27.1089	1.22263
3	0	12/12/2025 17:09:43.6089	1.2226
3	0	12/12/2025 17:10:00.1089	1.22207
3	0	12/12/2025 17:10:16.6089	1.22188
3	0	12/12/2025 17:10:33.1089	1.22195
3	0	12/12/2025 17:10:49.6089	1.22199
3	0	12/12/2025 17:11:06.1089	1.22202
3	0	12/12/2025 17:11:22.6089	1.22204
3	0	12/12/2025 17:11:39.1089	1.22173
3	0	12/12/2025 17:11:55.6089	1.22179
3	0	12/12/2025 17:12:12.1089	1.22182
3	0	12/12/2025 17:12:28.6089	1.22185
3	0	12/12/2025 17:12:45.1089	1.22187
3	0	12/12/2025 17:13:01.6089	1.22188
3	0	12/12/2025 17:13:18.1089	1.2219
3	0	12/12/2025 17:13:34.6089	1.22189
3	0	12/12/2025 17:13:51.1089	1.22171
3	0	12/12/2025 17:14:07.6089	1.22178
3	0	12/12/2025 17:14:24.1089	1.22181
3	0	12/12/2025 17:14:40.6089	1.22182
3	0	12/12/2025 17:14:57.1089	1.22184
3	0	12/12/2025 17:15:13.6089	1.22185
3	0	12/12/2025 17:15:30.1089	1.22189
3	0	12/12/2025 17:15:46.6089	1.22191
3	0	12/12/2025 17:16:03.1089	1.22195
3	0	12/12/2025 17:16:19.6089	1.22196
3	0	12/12/2025 17:16:36.1089	1.22188
3	0	12/12/2025 17:16:52.6089	1.22178
3	0	12/12/2025 17:17:09.1089	1.22176
3	0	12/12/2025 17:17:25.6089	1.22176
3	0	12/12/2025 17:17:42.1089	1.22174
3	0	12/12/2025 17:17:58.6089	1.22176
3	0	12/12/2025 17:18:15.1089	1.22177
3	0	12/12/2025 17:18:31.6089	1.22178
3	0	12/12/2025 17:18:48.1089	1.22178
3	0	12/12/2025 17:19:04.6089	1.22178
3	0	12/12/2025 17:19:21.1089	1.22177
3	0	12/12/2025 17:19:37.6089	1.2218
3	0	12/12/2025 17:19:54.1089	1.2218
3	0	12/12/2025 17:20:10.6089	1.22182
3	0	12/12/2025 17:20:27.1089	1.22183
3	0	12/12/2025 17:20:43.6089	1.22184
3	0	12/12/2025 17:21:00.1089	1.22186
3	0	12/12/2025 17:21:16.6089	1.22105
3	0	12/12/2025 17:21:33.1089	1.22116
3	0	12/12/2025 17:21:49.6089	1.22122
3	0	12/12/2025 17:22:06.1089	1.22129
3	0	12/12/2025 17:22:22.6089	1.22132
3	0	12/12/2025 17:22:39.1089	1.22124
3	0	12/12/2025 17:22:55.6089	1.22116
3	0	12/12/2025 17:23:12.1089	1.22116
3	0	12/12/2025 17:23:28.6089	1.22116
3	0	12/12/2025 17:23:45.1089	1.22117
3	0	12/12/2025 17:24:01.6089	1.22115
3	0	12/12/2025 17:24:18.1089	1.22115
3	0	12/12/2025 17:24:34.6089	1.22113
3	0	12/12/2025 17:24:51.1089	1.22107
3	0	12/12/2025 17:25:07.6089	1.2211
3	0	12/12/2025 17:25:24.1089	1.22108
3	0	12/12/2025 17:25:40.6089	1.22103
3	0	12/12/2025 17:25:57.1089	1.22102
3	0	12/12/2025 17:26:07.3449	1.22102