Folder: echemistpy/docs/examples/XAS/Echem/Operando1/Cell D

Note: docs/README.md
# 文档概览

`docs/Characterization/` 目录保留了 EQCM、XRD、XPS 等实验表征资料，可在撰写技术文档或学术报告时引用。
后续若集成 Sphinx/MkDocs，可在本目录下新增 `conf.py` 或 `mkdocs.yml`。

File: CellD_01_01_OCV_C03.mpt
EC-Lab ASCII FILE
Nb header lines : 53

Open Circuit Voltage

Run on channel : 3 (SN 52371)
User :
CE vs. WE compliance from -10 V to 10 V
Electrode connection : standard
Potential control : Ewe
Ewe ctrl range : min = 0.00 V, max = 3.00 V
Safety Limits :
	Do not start on E overload
Acquisition started on : 12/11/2025 15:06:56.384
Technique started on : 12/11/2025 15:06:56.884
Loaded Setting File :  NONE
Saved on :
	File : CellD_01_01_OCV_C03.mpr
	Directory : L:\projects\cycle2025-II\20250340369-skhabazian\EC_lab\Cell D\
	Host : 84.89.228.57
Device : VSP (SN 2155)
Address : 10.0.48.130
EC-LAB for windows v11.61 (software)
Internet server v11.61 (firmware)
Command interpretor v11.61 (firmware)
Electrode material :
Initial state :
Electrolyte :
Comments :
Mass of active material : 0.001 mg
 at x = 0.000
Molecular weight of active material (at x = 0) : 0.001 g/mol
Atomic weight of intercalated ion : 0.001 g/mol
Acquisition started at : xo = 0.000
Number of e- transfered per intercalated ion : 1
for DX = 1, DQ = 26.802 mA.h
Battery capacity : 0.000 A.h
Electrode surface area : 0.000 cm²
Characteristic mass : 0.001 g
Volume (V) : 0.001 cm³
Text export
   Mode : Standard
   Time format : Absolute MMDDYYYY
Cycle Definition : Charge/Discharge alternance
tR (h:m:s)          20:00:30.0000
dER/dt (mV/h)       0.0
record              <Ewe>
dER (mV)            0.00
dtR (s)             0.5000
E range min (V)     0.000
E range max (V)     3.000

mode	error	time/s	<Ewe/V>
3	0	12/11/2025 15:06:56.8840	1.44567
3	0	12/11/2025 15:07:05.3840	1.44566
3	0	12/11/2025 15:07:13.8840	1.44565
3	0	12/11/2025 15:07:22.3840	1.44564
3	0	12/11/2025 15:07:30.8840	1.44563
3	0	12/11/2025 15:07:39.3840	1.44561
3	0	12/11/2025 15:07:47.8840	1.4456
3	0	12/11/2025 15:07:56.3840	1.44559
3	0	12/11/2025 15:08:04.8840	1.44558
3	0	12/11/2025 15:08:13.3840	1.44557
3	0	12/11/2025 15:08:21.8840	1.44556
3	0	12/11/2025 15:08:30.3840	1.44555
3	0	12/11/2025 15:08:38.8840	1.44554
3	0	12/11/2025 15:08:47.3840	1.44553
3	0	12/11/2025 15:08:55.8840	1.4455
3	0	12/11/2025 15:09:04.3840	1.44548
3	0	12/11/2025 15:09:12.8840	1.44545
3	0	12/11/2025 15:09:21.3840	1.44544
3	0	12/11/2025 15:09:29.8840	1.44544
3	0	12/11/2025 15:09:38.3840	1.44542
3	0	12/11/2025 15:09:46.8840	1.4454
3	0	12/11/2025 15:09:55.3840	1.44539
3	0	12/11/2025 15:10:03.8840	1.44537
3	0	12/11/2025 15:10:12.3840	1.44536
3	0	12/11/2025 15:10:20.8840	1.44535
3	0	12/11/2025 15:10:29.3840	1.44534
3	0	12/11/2025 15:10:37.8840	1.44533
3	0	12/11/2025 15:10:46.3840	1.44531
3	0	12/11/2025 15:10:54.8840	1.44528
3	0	12/11/2025 15:11:03.3840	1.44525
3	0	12/11/2025 15:11:11.8840	1.44523
3	0	12/11/2025 15:11:20.3840	1.4452
3	0	12/11/2025 15:11:28.8840	1.44518
3	0	12/11/2025 15:11:37.3840	1.44516
3	0	12/11/2025 15:11:45.8840	1.44514
3	0	12/11/2025 15:11:54.3840	1.44512
3	0	12/11/2025 15:12:02.8840	1.44511
3	0	12/11/2025 15:12:11.3840	1.4451
3	0	12/11/2025 15:12:19.8840	1.44508
3	0	12/11/2025 15:12:28.3840	1.44506
3	0	12/11/2025 15:12:36.8840	1.44505
3	0	12/11/2025 15:12:45.3840	1.44503
3	0	12/11/2025 15:12:53.8840	1.44501
3	0	12/11/2025 15:13:02.3840	1.44499
3	0	12/11/2025 15:13:10.8840	1.44497
3	0	12/11/2025 15:13:19.3840	1.44495
3	0	12/11/2025 15:13:27.8840	1.44493
3	0	12/11/2025 15:13:36.3840	1.44488
3	0	12/11/2025 15:13:44.8840	1.44486
3	0	12/11/2025 15:13:53.3840	1.44483
3	0	12/11/2025 15:14:01.8840	1.44478
3	0	12/11/2025 15:14:10.3840	1.44474
3	0	12/11/2025 15:14:18.8840	1.44471
3	0	12/11/2025 15:14:27.3840	1.44467
3	0	12/11/2025 15:14:35.8840	1.44464
3	0	12/11/2025 15:14:44.3840	1.44462
3	0	12/11/2025 15:14:52.8840	1.44458
3	0	12/11/2025 15:15:01.3840	1.44454
3	0	12/11/2025 15:15:09.8840	1.44452
3	0	12/11/2025 15:15:18.3840	1.44453
3	0	12/11/2025 15:15:26.8840	1.44452
3	0	12/11/2025 15:15:35.3840	1.44453
3	0	12/11/2025 15:15:43.8840	1.44452
3	0	12/11/2025 15:15:52.3840	1.44451
3	0	12/11/2025 15:16:00.8840	1.44451
3	0	12/11/2025 15:16:09.3840	1.4445
3	0	12/11/2025 15:16:17.8840	1.44449
3	0	12/11/2025 15:16:26.3840	1.44448
3	0	12/11/2025 15:16:34.8840	1.44448
3	0	12/11/2025 15:16:43.3840	1.44447
3	0	12/11/2025 15:16:51.8840	1.44446
3	0	12/11/2025 15:17:00.3840	1.44445
3	0	12/11/2025 15:17:08.8840	1.44445
3	0	12/11/2025 15:17:17.3840	1.44444
3	0	12/11/2025 15:17:25.8840	1.44443
3	0	12/11/2025 15:17:34.3840	1.44442
3	0	12/11/2025 15:17:42.8840	1.4444
3	0	12/11/2025 15:17:51.3840	1.4444
3	0	12/11/2025 15:17:59.8840	1.44439
3	0	12/11/2025 15:18:08.3840	1.44437
3	0	12/11/2025 15:18:16.8840	1.44437
3	0	12/11/2025 15:18:25.3840	1.44435
3	0	12/11/2025 15:18:33.8840	1.44434
3	0	12/11/2025 15:18:42.3840	1.44433
3	0	12/11/2025 15:18:50.8840	1.44432
3	0	12/11/2025 15:18:59.3840	1.4443
3	0	12/11/2025 15:19:07.8840	1.44429
3	0	12/11/2025 15:19:16.3840	1.44429
3	0	12/11/2025 15:19:24.8840	1.44427
3	0	12/11/2025 15:19:33.3840	1.44425
3	0	12/11/2025 15:19:41.8840	1.44423
3	0	12/11/2025 15:19:50.3840	1.44423
3	0	12/11/2025 15:19:58.8840	1.44421
3	0	12/11/2025 15:20:07.3840	1.4442
3	0	12/11/2025 15:20:15.8840	1.44419
3	0	12/11/2025 15:20:24.3840	1.44418
3	0	12/11/2025 15:20:32.8840	1.44417
3	0	12/11/2025 15:20:41.3840	1.44416
3	0	12/11/2025 15:20:49.8840	1.44415
3	0	12/11/2025 15:20:58.3840	1.44414
3	0	12/11/2025 15:21:06.8840	1.44413
3	0	12/11/2025 15:21:15.3840	1.44412
3	0	12/11/2025 15:21:23.8840	1.44411
3	0	12/11/2025 15:21:32.3840	1.4441
3	0	12/11/2025 15:21:40.8840	1.44409
3	0	12/11/2025 15:21:49.3840	1.44408
3	0	12/11/2025 15:21:57.8840	1.44406
3	0	12/11/2025 15:22:06.3840	1.44406
3	0	12/11/2025 15:22:14.8840	1.44405
3	0	12/11/2025 15:22:23.3840	1.44403
3	0	12/11/2025 15:22:31.8840	1.44401
3	0	12/11/2025 15:22:40.3840	1.444
3	0	12/11/2025 15:22:48.8840	1.44399
3	0	12/11/2025 15:22:57.3840	1.44396
3	0	12/11/2025 15:23:05.8840	1.44395
3	0	12/11/2025 15:23:14.3840	1.44393
3	0	12/11/2025 15:23:22.8840	1.44393
3	0	12/11/2025 15:23:31.3840	1.44392
3	0	12/11/2025 15:23:39.8840	1.44391
3	0	12/11/2025 15:23:48.3840	1.44391
3	0	12/11/2025 15:23:56.8840	1.44389
3	0	12/11/2025 15:24:05.3840	1.44389
3	0	12/11/2025 15:24:13.8840	1.44389
3	0	12/11/2025 15:24:22.3840	1.44386
3	0	12/11/2025 15:24:30.8840	1.44385
3	0	12/11/2025 15:24:39.3840	1.44385
3	0	12/11/2025 15:24:47.8840	1.44383
3	0	12/11/2025 15:24:56.3840	1.44382
3	0	12/11/2025 15:25:04.8840	1.44382
3	0	12/11/2025 15:25:13.3840	1.44381
3	0	12/11/2025 15:25:21.8840	1.44379
3	0	12/11/2025 15:25:30.3840	1.4438
3	0	12/11/2025 15:25:38.8840	1.44378
3	0	12/11/2025 15:25:47.3840	1.44377
3	0	12/11/2025 15:25:55.8840	1.44375
3	0	12/11/2025 15:26:04.3840	1.44375
3	0	12/11/2025 15:26:12.8840	1.44374
3	0	12/11/2025 15:26:21.3840	1.44373
3	0	12/11/2025 15:26:29.8840	1.44372
3	0	12/11/2025 15:26:38.3840	1.4437
3	0	12/11/2025 15:26:46.8840	1.4437
3	0	12/11/2025 15:26:55.3840	1.44368
3	0	12/11/2025 15:27:03.8840	1.44367
3	0	12/11/2025 15:27:12.3840	1.44366
3	0	12/11/2025 15:27:20.8840	1.44363
3	0	12/11/2025 15:27:29.3840	1.44361
3	0	12/11/2025 15:27:37.8840	1.4436
3	0	12/11/2025 15:27:46.3840	1.44358
3	0	12/11/2025 15:27:54.8840	1.44356
3	0	12/11/2025 15:28:03.3840	1.44354
3	0	12/11/2025 15:28:11.8840	1.44353
3	0	12/11/2025 15:28:20.3840	1.44352
3	0	12/11/2025 15:28:28.8840	1.4435
3	0	12/11/2025 15:28:37.3840	1.44348
3	0	12/11/2025 15:28:45.8840	1.44345
3	0	12/11/2025 15:28:54.3840	1.44343
3	0	12/11/2025 15:29:02.8840	1.44341
3	0	12/11/2025 15:29:11.3840	1.44339
3	0	12/11/2025 15:29:19.8840	1.44335
3	0	12/11/2025 15:29:28.3840	1.44333
3	0	12/11/2025 15:29:36.8840	1.44328
3	0	12/11/2025 15:29:45.3840	1.44325
3	0	12/11/2025 15:29:53.8840	1.44321
3	0	12/11/2025 15:30:02.3840	1.44318
3	0	12/11/2025 15:30:10.8840	1.44315
3	0	12/11/2025 15:30:19.3840	1.44311
3	0	12/11/2025 15:30:27.8840	1.44308
3	0	12/11/2025 15:30:36.3840	1.44305
3	0	12/11/2025 15:30:44.8840	1.44303
3	0	12/11/2025 15:30:53.3840	1.44303
3	0	12/11/2025 15:31:01.8840	1.44303
3	0	12/11/2025 15:31:10.3840	1.44303
3	0	12/11/2025 15:31:18.8840	1.44302
3	0	12/11/2025 15:31:27.3840	1.44303
3	0	12/11/2025 15:31:35.8840	1.44303
3	0	12/11/2025 15:31:44.3840	1.44303
3	0	12/11/2025 15:31:52.8840	1.44302
3	0	12/11/2025 15:32:01.3840	1.44301
3	0	12/11/2025 15:32:09.8840	1.44301
3	0	12/11/2025 15:32:18.3840	1.44301
3	0	12/11/2025 15:32:26.8840	1.44298
3	0	12/11/2025 15:32:35.3840	1.44299
3	0	12/11/2025 15:32:43.8840	1.44298
3	0	12/11/2025 15:32:52.3840	1.44299
3	0	12/11/2025 15:33:00.8840	1.44298
3	0	12/11/2025 15:33:09.3840	1.44297
3	0	12/11/2025 15:33:17.8840	1.44296
3	0	12/11/2025 15:33:26.3840	1.44295
3	0	12/11/2025 15:33:34.8840	1.44295
3	0	12/11/2025 15:33:43.3840	1.44294
3	0	12/11/2025 15:33:51.8840	1.44293
3	0	12/11/2025 15:34:00.3840	1.44293
3	0	12/11/2025 15:34:08.8840	1.44292
3	0	12/11/2025 15:34:17.3840	1.44292
3	0	12/11/2025 15:34:25.8840	1.4429
3	0	12/11/2025 15:34:34.3840	1.44288
3	0	12/11/2025 15:34:42.8840	1.44288
3	0	12/11/2025 15:34:51.3840	1.44287
3	0	12/11/2025 15:34:59.8840	1.44286
3	0	12/11/2025 15:35:08.3840	1.44286
3	0	12/11/2025 15:35:16.8840	1.44285
3	0	12/11/2025 15:35:25.3840	1.44284
3	0	12/11/2025 15:35:33.8840	1.44283
3	0	12/11/2025 15:35:42.3840	1.44282
3	0	12/11/2025 15:35:50.8840	1.44281
3	0	12/11/2025 15:35:59.3840	1.44281
3	0	12/11/2025 15:36:07.8840	1.44279
3	0	12/11/2025 15:36:16.3840	1.44278
3	0	12/11/2025 15:36:24.8840	1.44276
3	0	12/11/2025 15:36:33.3840	1.44276
3	0	12/11/2025 15:36:41.8840	1.44275
3	0	12/11/2025 15:36:50.3840	1.44276
3	0	12/11/2025 15:36:58.8840	1.44273
3	0	12/11/2025 15:37:07.3840	1.44273
3	0	12/11/2025 15:37:15.8840	1.44272
3	0	12/11/2025 15:37:24.3840	1.4427
3	0	12/11/2025 15:37:32.8840	1.44268
3	0	12/11/2025 15:37:41.3840	1.44267
3	0	12/11/2025 15:37:49.8840	1.44265
3	0	12/11/2025 15:37:58.3840	1.44263
3	0	12/11/2025 15:38:06.8840	1.4426
3	0	12/11/2025 15:38:15.3840	1.44259
3	0	12/11/2025 15:38:23.8840	1.44257
3	0	12/11/2025 15:38:32.3840	1.44255
3	0	12/11/2025 15:38:40.8840	1.44253
3	0	12/11/2025 15:38:49.3840	1.4425
3	0	12/11/2025 15:38:57.8840	1.44247
3	0	12/11/2025 15:39:06.3840	1.44243
3	0	12/11/2025 15:39:14.8840	1.4424
3	0	12/11/2025 15:39:23.3840	1.44236
3	0	12/11/2025 15:39:31.8840	1.44234
3	0	12/11/2025 15:39:40.3840	1.44231
3	0	12/11/2025 15:39:48.8840	1.44226
3	0	12/11/2025 15:39:57.3839	1.44223
3	0	12/11/2025 15:40:05.8839	1.4422
3	0	12/11/2025 15:40:14.3839	1.44217
3	0	12/11/2025 15:40:22.8839	1.44216
3	0	12/11/2025 15:40:31.3839	1.44217
3	0	12/11/2025 15:40:39.8839	1.44217
3	0	12/11/2025 15:40:48.3839	1.44216
3	0	12/11/2025 15:40:56.8839	1.44217
3	0	12/11/2025 15:41:05.3839	1.44217
3	0	12/11/2025 15:41:13.8839	1.44216
3	0	12/11/2025 15:41:22.3839	1.44217
3	0	12/11/2025 15:41:30.8839	1.44216
3	0	12/11/2025 15:41:39.3839	1.44216
3	0	12/11/2025 15:41:47.8839	1.44214
3	0	12/11/2025 15:41:56.3839	1.44214
3	0	12/11/2025 15:42:04.8839	1.44214
3	0	12/11/2025 15:42:13.3839	1.44213
3	0	12/11/2025 15:42:21.8839	1.44214
3	0	12/11/2025 15:42:30.3839	1.44212
3	0	12/11/2025 15:42:38.8839	1.44212
3	0	12/11/2025 15:42:47.3839	1.44211
3	0	12/11/2025 15:42:55.8839	1.44211
3	0	12/11/2025 15:43:04.3839	1.4421
3	0	12/11/2025 15:43:12.8839	1.44209
3	0	12/11/2025 15:43:21.3839	1.44209
3	0	12/11/2025 15:43:29.8839	1.44208
3	0	12/11/2025 15:43:38.3839	1.44207
3	0	12/11/2025 15:43:46.8839	1.44207
3	0	12/11/2025 15:43:55.3839	1.44206
3	0	12/11/2025 15:44:03.8839	1.44205
3	0	12/11/2025 15:44:12.3839	1.44205
3	0	12/11/2025 15:44:20.8839	1.44204
3	0	12/11/2025 15:44:29.3839	1.44203
3	0	12/11/2025 15:44:37.8839	1.44202
3	0	12/11/2025 15:44:46.3839	1.442
3	0	12/11/2025 15:44:54.8839	1.44199
3	0	12/11/2025 15:45:03.3839	1.44198
3	0	12/11/2025 15:45:11.8365	1.44197