Folder: echemistpy/docs/examples/XAS/Echem/Operando1/Cell C

Note: docs/README.md
# 文档概览

`docs/Characterization/` 目录保留了 EQCM、XRD、XPS 等实验表征资料，可在撰写技术文档或学术报告时引用。
后续若集成 Sphinx/MkDocs，可在本目录下新增 `conf.py` 或 `mkdocs.yml`。

File: CellC_01_01_OCV_C04.mpt
EC-Lab ASCII FILE
Nb header lines : 53

Open Circuit Voltage

Run on channel : 4 (SN 52456)
User :
CE vs. WE compliance from -10 V to 10 V
Electrode connection : standard
Potential control : Ewe
Ewe ctrl range : min = 0.00 V, max = 3.00 V
Safety Limits :
	Do not start on E overload
Acquisition started on : 12/11/2025 15:07:26.419
Technique started on : 12/11/2025 15:07:26.919
Loaded Setting File :  NONE
Saved on :
	File : CellC_01_01_OCV_C04.mpr
	Directory : L:\projects\cycle2025-II\20250340369-skhabazian\EC_lab\Cell C\
	Host : 84.89.228.57
Device : VSP (SN 2155)
Address : 10.0.48.130
EC-LAB for windows v11.61 (software)
Internet server v11.61 (firmware)
Command interpretor v11.61 (firmware)
Electrode material :
Initial state :
Electrolyte :
Comments :
Mass of active material : 0.001 mg
 at x = 0.000
Molecular weight of active material (at x = 0) : 0.001 g/mol
Atomic weight of intercalated ion : 0.001 g/mol
Acquisition started at : xo = 0.000
Number of e- transfered per intercalated ion : 1
for DX = 1, DQ = 26.802 mA.h
Battery capacity : 0.000 A.h
Electrode surface area : 0.000 cm²
Characteristic mass : 0.001 g
Volume (V) : 0.001 cm³
Text export
   Mode : Standard
   Time format : Absolute MMDDYYYY
Cycle Definition : Charge/Discharge alternance
tR (h:m:s)          20:00:30.0000
dER/dt (mV/h)       0.0
record              <Ewe>
dER (mV)            0.00
dtR (s)             0.5000
E range min (V)     0.000
E range max (V)     3.000

mode	error	time/s	<Ewe/V>
3	0	12/11/2025 15:07:26.9190	1.43211
3	0	12/11/2025 15:07:35.4190	1.4321
3	0	12/11/2025 15:07:43.9190	1.4321
3	0	12/11/2025 15:07:52.4190	1.4321
3	0	12/11/2025 15:08:00.9190	1.43209
3	0	12/11/2025 15:08:09.4190	1.43209
3	0	12/11/2025 15:08:17.9190	1.43208
3	0	12/11/2025 15:08:26.4190	1.43208
3	0	12/11/2025 15:08:34.9190	1.43207
3	0	12/11/2025 15:08:43.4190	1.43207
3	0	12/11/2025 15:08:51.9190	1.43207
3	0	12/11/2025 15:09:00.4190	1.43206
3	0	12/11/2025 15:09:08.9190	1.43206
3	0	12/11/2025 15:09:17.4190	1.43205
3	0	12/11/2025 15:09:25.9190	1.43204
3	0	12/11/2025 15:09:34.4190	1.43203
3	0	12/11/2025 15:09:42.9190	1.43203
3	0	12/11/2025 15:09:51.4190	1.43202
3	0	12/11/2025 15:09:59.9190	1.43202
3	0	12/11/2025 15:10:08.4190	1.43201
3	0	12/11/2025 15:10:16.9190	1.43199
3	0	12/11/2025 15:10:25.4190	1.43199
3	0	12/11/2025 15:10:33.9190	1.43197
3	0	12/11/2025 15:10:42.4190	1.43197
3	0	12/11/2025 15:10:50.9190	1.43197
3	0	12/11/2025 15:10:59.4190	1.43196
3	0	12/11/2025 15:11:07.9190	1.43195
3	0	12/11/2025 15:11:16.4190	1.43195
3	0	12/11/2025 15:11:24.9190	1.43195
3	0	12/11/2025 15:11:33.4190	1.43194
3	0	12/11/2025 15:11:41.9190	1.43194
3	0	12/11/2025 15:11:50.4190	1.43194
3	0	12/11/2025 15:11:58.9190	1.43192
3	0	12/11/2025 15:12:07.4190	1.43192
3	0	12/11/2025 15:12:15.9190	1.43191
3	0	12/11/2025 15:12:24.4190	1.43191
3	0	12/11/2025 15:12:32.9190	1.4319
3	0	12/11/2025 15:12:41.4190	1.43189
3	0	12/11/2025 15:12:49.9190	1.43189
3	0	12/11/2025 15:12:58.4190	1.43189
3	0	12/11/2025 15:13:06.9190	1.43188
3	0	12/11/2025 15:13:15.4190	1.43187
3	0	12/11/2025 15:13:23.9190	1.43186
3	0	12/11/2025 15:13:32.4190	1.43186
3	0	12/11/2025 15:13:40.9190	1.43185
3	0	12/11/2025 15:13:49.4190	1.43184
3	0	12/11/2025 15:13:57.9190	1.43184
3	0	12/11/2025 15:14:06.4190	1.43184
3	0	12/11/2025 15:14:14.9190	1.43183
3	0	12/11/2025 15:14:23.4190	1.43183
3	0	12/11/2025 15:14:31.9190	1.43183
3	0	12/11/2025 15:14:40.4190	1.43182
3	0	12/11/2025 15:14:48.9190	1.43182
3	0	12/11/2025 15:14:57.4190	1.43181
3	0	12/11/2025 15:15:05.9190	1.4318
3	0	12/11/2025 15:15:14.4190	1.4318
3	0	12/11/2025 15:15:22.9190	1.43179
3	0	12/11/2025 15:15:31.4190	1.43179
3	0	12/11/2025 15:15:39.9190	1.43177
3	0	12/11/2025 15:15:48.4190	1.43176
3	0	12/11/2025 15:15:56.9190	1.43174
3	0	12/11/2025 15:16:05.4190	1.43173
3	0	12/11/2025 15:16:13.9190	1.43172
3	0	12/11/2025 15:16:22.4190	1.43171
3	0	12/11/2025 15:16:30.9190	1.43171
3	0	12/11/2025 15:16:39.4190	1.43169
3	0	12/11/2025 15:16:47.9190	1.43168
3	0	12/11/2025 15:16:56.4190	1.43166
3	0	12/11/2025 15:17:04.9190	1.43164
3	0	12/11/2025 15:17:13.4190	1.43162
3	0	12/11/2025 15:17:21.9190	1.43159
3	0	12/11/2025 15:17:30.4190	1.43156
3	0	12/11/2025 15:17:38.9190	1.43153
3	0	12/11/2025 15:17:47.4190	1.4315
3	0	12/11/2025 15:17:55.9190	1.43146
3	0	12/11/2025 15:18:04.4190	1.43142
3	0	12/11/2025 15:18:12.9190	1.43139
3	0	12/11/2025 15:18:21.4190	1.43137
3	0	12/11/2025 15:18:29.9190	1.43133
3	0	12/11/2025 15:18:38.4190	1.4313
3	0	12/11/2025 15:18:46.9190	1.43128
3	0	12/11/2025 15:18:55.4190	1.43125
3	0	12/11/2025 15:19:03.9190	1.43128
3	0	12/11/2025 15:19:12.4190	1.43129
3	0	12/11/2025 15:19:20.9190	1.43107
3	0	12/11/2025 15:19:29.4190	1.43107
3	0	12/11/2025 15:19:37.9190	1.43108
3	0	12/11/2025 15:19:46.4190	1.43108
3	0	12/11/2025 15:19:54.9190	1.43108
3	0	12/11/2025 15:20:03.4190	1.43108
3	0	12/11/2025 15:20:11.9190	1.43108
3	0	12/11/2025 15:20:20.4190	1.43108
3	0	12/11/2025 15:20:28.9190	1.43108
3	0	12/11/2025 15:20:37.4190	1.43108
3	0	12/11/2025 15:20:45.9190	1.43109
3	0	12/11/2025 15:20:54.4190	1.43109
3	0	12/11/2025 15:21:02.9190	1.43109
3	0	12/11/2025 15:21:11.4190	1.43108
3	0	12/11/2025 15:21:19.9190	1.43108
3	0	12/11/2025 15:21:28.4190	1.43108
3	0	12/11/2025 15:21:36.9190	1.43108
3	0	12/11/2025 15:21:45.4190	1.43107
3	0	12/11/2025 15:21:53.9190	1.43108
3	0	12/11/2025 15:22:02.4190	1.43108
3	0	12/11/2025 15:22:10.9190	1.43105
3	0	12/11/2025 15:22:19.4190	1.43104
3	0	12/11/2025 15:22:27.9190	1.43105
3	0	12/11/2025 15:22:36.4190	1.43105
3	0	12/11/2025 15:22:44.9190	1.43104
3	0	12/11/2025 15:22:53.4190	1.43104
3	0	12/11/2025 15:23:01.9190	1.43103
3	0	12/11/2025 15:23:10.4190	1.43103
3	0	12/11/2025 15:23:18.9190	1.43103
3	0	12/11/2025 15:23:27.4190	1.43103
3	0	12/11/2025 15:23:35.9190	1.43103
3	0	12/11/2025 15:23:44.4190	1.43103
3	0	12/11/2025 15:23:52.9190	1.43102
3	0	12/11/2025 15:24:01.4190	1.43101
3	0	12/11/2025 15:24:09.9190	1.43101
3	0	12/11/2025 15:24:18.4190	1.43101
3	0	12/11/2025 15:24:26.9190	1.43101
3	0	12/11/2025 15:24:35.4190	1.431
3	0	12/11/2025 15:24:43.9190	1.43099
3	0	12/11/2025 15:24:52.4190	1.43099
3	0	12/11/2025 15:25:00.9190	1.43098
3	0	12/11/2025 15:25:09.4190	1.43098
3	0	12/11/2025 15:25:17.9190	1.43099
3	0	12/11/2025 15:25:26.4190	1.43098
3	0	12/11/2025 15:25:34.9190	1.43098
3	0	12/11/2025 15:25:43.4190	1.43097
3	0	12/11/2025 15:25:51.9190	1.43097
3	0	12/11/2025 15:26:00.4190	1.43097
3	0	12/11/2025 15:26:08.9190	1.43097
3	0	12/11/2025 15:26:17.4190	1.43096
3	0	12/11/2025 15:26:25.9190	1.43096
3	0	12/11/2025 15:26:34.4190	1.43094
3	0	12/11/2025 15:26:42.9190	1.43094
3	0	12/11/2025 15:26:51.4190	1.43094
3	0	12/11/2025 15:26:59.9190	1.4309
3	0	12/11/2025 15:27:08.4190	1.4309
3	0	12/11/2025 15:27:16.9190	1.4309
3	0	12/11/2025 15:27:25.4190	1.4309
3	0	12/11/2025 15:27:33.9190	1.43089
3	0	12/11/2025 15:27:42.4190	1.4309
3	0	12/11/2025 15:27:50.9190	1.43087
3	0	12/11/2025 15:27:59.4190	1.43087
3	0	12/11/2025 15:28:07.9190	1.43086
3	0	12/11/2025 15:28:16.4190	1.43086
3	0	12/11/2025 15:28:24.9190	1.43085
3	0	12/11/2025 15:28:33.4190	1.43086
3	0	12/11/2025 15:28:41.9190	1.43085
3	0	12/11/2025 15:28:50.4190	1.43084
3	0	12/11/2025 15:28:58.9190	1.43084
3	0	12/11/2025 15:29:07.4190	1.43084
3	0	12/11/2025 15:29:15.9190	1.43083
3	0	12/11/2025 15:29:24.4190	1.43083
3	0	12/11/2025 15:29:32.9190	1.43084
3	0	12/11/2025 15:29:41.4190	1.43083
3	0	12/11/2025 15:29:49.9190	1.43083
3	0	12/11/2025 15:29:58.4190	1.43081
3	0	12/11/2025 15:30:06.9190	1.43081
3	0	12/11/2025 15:30:15.4190	1.4308
3	0	12/11/2025 15:30:23.9190	1.4308
3	0	12/11/2025 15:30:32.4190	1.43079
3	0	12/11/2025 15:30:40.9190	1.4308
3	0	12/11/2025 15:30:49.4190	1.43079
3	0	12/11/2025 15:30:57.9190	1.43079
3	0	12/11/2025 15:31:06.4190	1.43079
3	0	12/11/2025 15:31:14.9190	1.43077
3	0	12/11/2025 15:31:23.4190	1.43076
3	0	12/11/2025 15:31:31.9190	1.43075
3	0	12/11/2025 15:31:40.4190	1.43061
3	0	12/11/2025 15:31:48.9190	1.43055
3	0	12/11/2025 15:31:57.4190	1.43054
3	0	12/11/2025 15:32:05.9190	1.43054
3	0	12/11/2025 15:32:14.4190	1.43052
3	0	12/11/2025 15:32:22.9190	1.43051
3	0	12/11/2025 15:32:31.4190	1.43051
3	0	12/11/2025 15:32:39.9190	1.43049
3	0	12/11/2025 15:32:48.4190	1.43049
3	0	12/11/2025 15:32:56.9190	1.43047
3	0	12/11/2025 15:33:05.4190	1.43045
3	0	12/11/2025 15:33:13.9190	1.43043
3	0	12/11/2025 15:33:22.4190	1.4304
3	0	12/11/2025 15:33:30.9190	1.43037
3	0	12/11/2025 15:33:39.4190	1.43035
3	0	12/11/2025 15:33:47.9190	1.43033
3	0	12/11/2025 15:33:56.4190	1.4303
3	0	12/11/2025 15:34:04.9190	1.43028
3	0	12/11/2025 15:34:13.4190	1.43025
3	0	12/11/2025 15:34:21.9190	1.43023
3	0	12/11/2025 15:34:30.4190	1.43021
3	0	12/11/2025 15:34:38.9190	1.4302
3	0	12/11/2025 15:34:47.4190	1.4302
3	0	12/11/2025 15:34:55.9190	1.43022
3	0	12/11/2025 15:35:04.4190	1.43023
3	0	12/11/2025 15:35:12.9190	1.43024
3	0	12/11/2025 15:35:21.4190	1.43024
3	0	12/11/2025 15:35:29.9190	1.43024
3	0	12/11/2025 15:35:38.4190	1.43023
3	0	12/11/2025 15:35:46.9190	1.43023
3	0	12/11/2025 15:35:55.4190	1.43022
3	0	12/11/2025 15:36:03.9190	1.43022
3	0	12/11/2025 15:36:12.4190	1.43021
3	0	12/11/2025 15:36:20.9190	1.43021
3	0	12/11/2025 15:36:29.4190	1.43021
3	0	12/11/2025 15:36:37.9190	1.43022
3	0	12/11/2025 15:36:46.4190	1.43021
3	0	12/11/2025 15:36:54.9190	1.43021
3	0	12/11/2025 15:37:03.4190	1.43021
3	0	12/11/2025 15:37:11.9190	1.43021
3	0	12/11/2025 15:37:20.4190	1.43021
3	0	12/11/2025 15:37:28.9190	1.43021
3	0	12/11/2025 15:37:37.4190	1.4302
3	0	12/11/2025 15:37:45.9190	1.4302
3	0	12/11/2025 15:37:54.4190	1.4302
3	0	12/11/2025 15:38:02.9190	1.4302
3	0	12/11/2025 15:38:11.4190	1.4302
3	0	12/11/2025 15:38:19.9190	1.4302
3	0	12/11/2025 15:38:28.4190	1.43019
3	0	12/11/2025 15:38:36.9190	1.43019
3	0	12/11/2025 15:38:45.4190	1.43019
3	0	12/11/2025 15:38:53.9190	1.43019
3	0	12/11/2025 15:39:02.4190	1.43019
3	0	12/11/2025 15:39:10.9190	1.43021
3	0	12/11/2025 15:39:19.4190	1.43019
3	0	12/11/2025 15:39:27.9190	1.43019
3	0	12/11/2025 15:39:36.4190	1.43019
3	0	12/11/2025 15:39:44.9190	1.43018
3	0	12/11/2025 15:39:53.4190	1.43018
3	0	12/11/2025 15:40:01.9190	1.43018
3	0	12/11/2025 15:40:10.4190	1.43017
3	0	12/11/2025 15:40:18.9190	1.43017
3	0	12/11/2025 15:40:27.4189	1.43017
3	0	12/11/2025 15:40:35.9189	1.43016
3	0	12/11/2025 15:40:44.4189	1.43014
3	0	12/11/2025 15:40:52.9189	1.43013
3	0	12/11/2025 15:41:01.4189	1.43012
3	0	12/11/2025 15:41:09.9189	1.43011
3	0	12/11/2025 15:41:18.4189	1.4301
3	0	12/11/2025 15:41:26.9189	1.4301
3	0	12/11/2025 15:41:35.4189	1.43009
3	0	12/11/2025 15:41:43.9189	1.43008
3	0	12/11/2025 15:41:52.4189	1.43008
3	0	12/11/2025 15:42:00.9189	1.43006
3	0	12/11/2025 15:42:09.4189	1.43005
3	0	12/11/2025 15:42:17.9189	1.43003
3	0	12/11/2025 15:42:26.4189	1.43001
3	0	12/11/2025 15:42:34.9189	1.42999
3	0	12/11/2025 15:42:43.4189	1.42997
3	0	12/11/2025 15:42:51.9189	1.42992
3	0	12/11/2025 15:43:00.4189	1.4299
3	0	12/11/2025 15:43:08.9189	1.42987
3	0	12/11/2025 15:43:17.4189	1.42983
3	0	12/11/2025 15:43:25.9189	1.4298
3	0	12/11/2025 15:43:34.4189	1.42977
3	0	12/11/2025 15:43:42.9189	1.42974
3	0	12/11/2025 15:43:51.4189	1.42971
3	0	12/11/2025 15:43:59.9189	1.42968
3	0	12/11/2025 15:44:08.4189	1.42966
3	0	12/11/2025 15:44:16.9189	1.4295
3	0	12/11/2025 15:44:25.4189	1.42952
3	0	12/11/2025 15:44:33.9189	1.42952
3	0	12/11/2025 15:44:42.4189	1.42952
3	0	12/11/2025 15:44:50.9189	1.42953
3	0	12/11/2025 15:44:59.4189	1.42955
3	0	12/11/2025 15:45:03.4989	1.42954