Folder: echemistpy/docs/examples/echem/folder

Note: docs/README.md
# 文档概览

`docs/Characterization/` 目录保留了 EQCM、XRD、XPS 等实验表征资料，可在撰写技术文档或学术报告时引用。
后续若集成 Sphinx/MkDocs，可在本目录下新增 `conf.py` 或 `mkdocs.yml`。

File: aa.mpt
EC-Lab ASCII FILE
Nb header lines : 51

Open Circuit Voltage

Run on channel : 2 (SN 35864)
User :
CE vs. WE compliance from -10 V to 10 V
Electrode connection : standard
Potential control : Ewe
Ewe ctrl range : min = -2.50 V, max = 2.50 V
Safety Limits :
	Do not start on E overload
Acquisition started on : 02/19/2024 13:44:47.893
Loaded Setting File :  NONE
Saved on :
	File : LC-005C-Zn-1M ZnSO4+02M MnSO4-alphaMnO2-8112-12mm_01_OCV_C02.mpr
	Directory : C:\DATA\CHENG\2024\BulkCell\2024-02\
	Host : 192.109.209.127
Device : VSP (SN 1377)
Address : 192.109.209.128
EC-LAB for windows v11.52 (software)
Internet server v11.52 (firmware)
Command interpretor v11.50 (firmware)
Electrode material :
Initial state :
Electrolyte :
Comments : Li-ion 18650 1.35 A.h
Comments : GITT
Mass of active material : 7000.000 mg
 at x = 1.000
Molecular weight of active material (at x = 0) : 90.930 g/mol
Atomic weight of intercalated ion : 6.940 g/mol
Acquisition started at : xo = 0.900
Number of e- transfered per intercalated ion : 1
for DX = 1, DQ = 1916.936 mA.h
Battery capacity : 0.000 A.h
Electrode surface area : 0.001 cm2
Characteristic mass : 0.001 g
Volume (V) : 0.001 cm3
Record Ece
Cycle Definition : Charge/Discharge alternance
tR (h:m:s)          2:00:0.0000
dER/dt (mV/h)       1.0
record              <Ewe>
dER (mV)            0.00
dtR (s)             0.50
E range min (V)     -2.500
E range max (V)     2.500

mode	error	time/s	<Ewe/V>	<Ece>/V	Ewe-Ece/V
3	0	0.5	1.46861	5.01452e-05	1.46856
3	0	19.5	1.46879	5.05614e-05	1.46874
3	0	38.5	1.46902	4.62456e-05	1.46898
3	0	57.5	1.46861	5.84903e-05	1.46855
3	0	76.5	1.46716	5.51522e-05	1.4671
3	0	95.5	1.46837	5.4755e-05	1.46832
3	0	114.5	1.46891	5.4755e-05	1.46886
3	0	133.5	1.46929	5.36016e-05	1.46923
3	0	152.5	1.46528	5.39224e-05	1.46523
3	0	171.5	1.47807	5.43883e-05	1.47802
3	0	190.5	1.47978	5.35939e-05	1.47973
3	0	209.5	1.47959	5.65806e-05	1.47954
3	0	228.5	1.47951	5.38536e-05	1.47946
3	0	247.5	1.47972	5.40217e-05	1.47967
3	0	266.5	1.47989	5.5198e-05	1.47983
3	0	285.5	1.48014	5.21426e-05	1.48009
3	0	304.5	1.48049	5.58168e-05	1.48043
3	0	323.5	1.48093	5.16766e-05	1.48088
3	0	342.5	1.48141	4.71164e-05	1.48136
3	0	361.5	1.4819	5.33724e-05	1.48184
3	0	380.5	1.48237	5.05385e-05	1.48232
3	0	399.5	1.48279	5.39453e-05	1.48274
3	0	418.5	1.48323	5.21426e-05	1.48318
3	0	437.5	1.48364	5.24634e-05	1.48359
3	0	456.5	1.484	5.1478e-05	1.48395
3	0	475.5	1.48437	5.4755e-05	1.48431
3	0	494.5	1.48477	5.24023e-05	1.48472
3	0	513.5	1.48518	5.52897e-05	1.48512
3	0	532.5	1.48558	5.56029e-05	1.48553
3	0	551.5	1.48592	5.38154e-05	1.48586
3	0	570.5	1.48624	5.28988e-05	1.48619
3	0	589.5	1.48657	5.765e-05	1.48651
3	0	608.5	1.48689	5.21961e-05	1.48684
3	0	627.5	1.4872	5.28453e-05	1.48715
3	0	646.5	1.48759	4.96753e-05	1.48754
3	0	665.5	1.48799	4.9492e-05	1.48794
3	0	684.5	1.48837	5.04392e-05	1.48832
3	0	703.5	1.48868	5.1585e-05	1.48863
3	0	722.5	1.48902	4.93545e-05	1.48897
3	0	741.5	1.48944	5.29523e-05	1.48939
3	0	760.5	1.4897	4.95225e-05	1.48965
3	0	779.5	1.49002	5.2028e-05	1.48997
3	0	798.5	1.4904	5.91625e-05	1.49034
3	0	817.5	1.49075	5.40828e-05	1.4907
3	0	836.5	1.49108	5.06225e-05	1.49103
3	0	855.5	1.49138	5.62063e-05	1.49132
3	0	874.5	1.49167	5.79709e-05	1.49161
3	0	893.5	1.49198	5.3021e-05	1.49193
3	0	912.5	1.49226	4.31519e-05	1.49221
3	0	931.5	1.49254	5.05767e-05	1.49249
3	0	950.5	1.49285	5.26238e-05	1.49279
3	0	969.5	1.49314	5.17225e-05	1.49309
3	0	988.5	1.49353	5.3571e-05	1.49347
3	0	1007.5	1.49384	5.02176e-05	1.49379
3	0	1026.5	1.49415	5.1562e-05	1.4941
3	0	1045.5	1.4944	5.33037e-05	1.49435
3	0	1064.5	1.49459	4.60164e-05	1.49454
3	0	1083.5	1.49477	5.10121e-05	1.49472
3	0	1102.5	1.49498	4.94156e-05	1.49493
3	0	1121.5	1.49523	4.58331e-05	1.49518
3	0	1140.5	1.49553	5.40675e-05	1.49547
3	0	1159.5	1.49578	5.24481e-05	1.49572
3	0	1178.5	1.49596	5.4671e-05	1.49591
3	0	1197.5	1.4961	5.57938e-05	1.49605
3	0	1216.5	1.49632	5.50071e-05	1.49627
3	0	1235.5	1.49639	5.82229e-05	1.49633
3	0	1254.5	1.49654	5.39988e-05	1.49649
3	0	1273.5	1.49673	4.81323e-05	1.49668
3	0	1292.5	1.49686	4.89344e-05	1.49681
3	0	1311.5	1.49702	4.60164e-05	1.49698
3	0	1330.5	1.49715	5.04086e-05	1.4971
3	0	1349.5	1.49728	4.90107e-05	1.49723
3	0	1368.5	1.49741	4.96982e-05	1.49736
3	0	1387.5	1.49759	4.61768e-05	1.49755
3	0	1406.5	1.49774	4.55581e-05	1.49769
3	0	1425.5	1.49794	4.91406e-05	1.49789
3	0	1444.5	1.49812	4.99427e-05	1.49807
3	0	1463.5	1.49849	5.38078e-05	1.49844
3	0	1482.5	1.4988	5.75507e-05	1.49875
3	0	1501.5	1.4989	6.07208e-05	1.49884
3	0	1520.5	1.49893	5.69778e-05	1.49887
3	0	1539.5	1.49901	5.03093e-05	1.49896
3	0	1558.5	1.4991	5.43425e-05	1.49905
3	0	1577.5	1.49917	4.99885e-05	1.49912
3	0	1596.5	1.49923	4.99197e-05	1.49918
3	0	1615.5	1.49923	4.90413e-05	1.49918
3	0	1634.5	1.49923	5.27842e-05	1.49918
3	0	1653.5	1.49923	5.11343e-05	1.49918
3	0	1672.5	1.49914	4.48019e-05	1.49909
3	0	1691.5	1.49903	5.20815e-05	1.49897
3	0	1710.5	1.49899	5.16919e-05	1.49894
3	0	1729.5	1.49893	5.65653e-05	1.49887
3	0	1748.5	1.49894	5.2387e-05	1.49889
3	0	1767.5	1.49903	4.67803e-05	1.49899
3	0	1786.5	1.49915	4.78038e-05	1.4991
3	0	1805.5	1.4992	5.55723e-05	1.49914
3	0	1824.5	1.4992	5.48161e-05	1.49915
3	0	1843.5	1.4992	5.00954e-05	1.49915
3	0	1862.5	1.49922	4.94003e-05	1.49917
3	0	1881.5	1.49929	4.89878e-05	1.49924
3	0	1900.5	1.49934	5.14704e-05	1.49929
3	0	1919.5	1.49944	4.50157e-05	1.49939
3	0	1938.5	1.49958	4.78115e-05	1.49953
3	0	1957.5	1.49973	4.84149e-05	1.49968
3	0	1976.5	1.4999	5.11266e-05	1.49985
3	0	1995.5	1.50007	5.02024e-05	1.50002
3	0	2014.5	1.50021	4.84378e-05	1.50017
3	0	2033.5	1.50036	5.30974e-05	1.50031
3	0	2052.5	1.50053	4.85601e-05	1.50048
3	0	2071.5	1.50068	5.48467e-05	1.50062
3	0	2090.5	1.50082	5.43043e-05	1.50077
3	0	2109.5	1.50094	5.10808e-05	1.50089
3	0	2128.5	1.50106	5.02406e-05	1.50101
3	0	2147.5	1.50112	5.41592e-05	1.50107
3	0	2166.5	1.50116	5.10121e-05	1.50111
3	0	2185.5	1.5012	5.10961e-05	1.50115
3	0	2204.5	1.50126	5.89333e-05	1.5012
3	0	2223.5	1.50135	5.54043e-05	1.5013
3	0	2242.5	1.50145	5.42432e-05	1.5014
3	0	2261.5	1.50155	5.08135e-05	1.5015
3	0	2280.5	1.50166	5.39377e-05	1.50161
3	0	2299.5	1.50181	5.62369e-05	1.50175
3	0	2318.5	1.50199	5.94757e-05	1.50193
3	0	2337.5	1.50214	5.79479e-05	1.50208
3	0	2356.5	1.50227	5.43883e-05	1.50222
3	0	2375.5	1.5024	5.48161e-05	1.50234
3	0	2394.5	1.50251	5.41745e-05	1.50246
3	0	2413.5	1.50263	5.52133e-05	1.50257
3	0	2432.5	1.50272	5.4946e-05	1.50266
3	0	2451.5	1.50279	5.51904e-05	1.50274
3	0	2470.5	1.50283	5.83757e-05	1.50277
3	0	2489.5	1.50286	5.88035e-05	1.5028
3	0	2508.5	1.50294	5.70771e-05	1.50289
3	0	2527.5	1.50308	5.86583e-05	1.50302
3	0	2546.5	1.50317	5.77417e-05	1.50312
3	0	2565.5	1.50324	5.22572e-05	1.50319
3	0	2584.5	1.50332	5.60077e-05	1.50326
3	0	2603.5	1.50341	5.40904e-05	1.50336
3	0	2622.5	1.50359	4.95531e-05	1.50354
3	0	2641.5	1.5038	5.4121e-05	1.50375
3	0	2660.5	1.50389	5.7925e-05	1.50383
3	0	2679.5	1.50401	5.93305e-05	1.50395
3	0	2698.5	1.50406	5.76959e-05	1.504
3	0	2717.5	1.50388	6.24394e-05	1.50382
3	0	2736.5	1.5035	5.2112e-05	1.50345
3	0	2755.5	1.50301	5.64431e-05	1.50295
3	0	2774.5	1.50255	4.9492e-05	1.5025
3	0	2793.5	1.50185	5.29981e-05	1.50179
3	0	2812.5	1.50132	5.18676e-05	1.50127
3	0	2831.5	1.50085	5.17377e-05	1.50079
3	0	2850.5	1.5004	5.25933e-05	1.50035
3	0	2869.5	1.50007	5.66494e-05	1.50001
3	0	2888.5	1.49981	5.34106e-05	1.49975
3	0	2907.5	1.4992	5.84903e-05	1.49914
3	0	2926.5	1.49842	5.70389e-05	1.49837
3	0	2945.5	1.49727	6.31193e-05	1.49721
3	0	2964.5	1.49611	5.78792e-05	1.49605
3	0	2983.5	1.49507	5.45487e-05	1.49502
3	0	3002.5	1.49413	5.7016e-05	1.49408
3	0	3021.5	1.49315	5.47092e-05	1.4931
3	0	3040.5	1.49226	5.23183e-05	1.49221
3	0	3059.5	1.49151	5.98347e-05	1.49145
3	0	3078.5	1.49113	5.67792e-05	1.49107
3	0	3097.5	1.49079	5.875e-05	1.49073
3	0	3116.5	1.49043	5.65883e-05	1.49037
3	0	3135.5	1.49016	5.22113e-05	1.49011
3	0	3154.5	1.48991	5.29141e-05	1.48986
3	0	3173.5	1.48968	5.30898e-05	1.48963
3	0	3192.5	1.48952	5.73598e-05	1.48946
3	0	3211.5	1.4893	5.41057e-05	1.48924
3	0	3230.5	1.48916	5.76882e-05	1.48911
3	0	3249.5	1.48906	5.85361e-05	1.489
3	0	3268.5	1.48898	5.45487e-05	1.48892
3	0	3287.5	1.48886	5.60383e-05	1.4888
3	0	3306.5	1.4887	5.7482e-05	1.48864
3	0	3325.5	1.48857	5.71764e-05	1.48852
3	0	3344.5	1.48842	6.07055e-05	1.48836
3	0	3363.5	1.48829	5.66112e-05	1.48823
3	0	3382.5	1.48815	5.37696e-05	1.4881
3	0	3401.5	1.488	5.9468e-05	1.48794
3	0	3420.5	1.48779	6.29818e-05	1.48772
3	0	3439.5	1.48754	6.21339e-05	1.48748
3	0	3458.5	1.48732	6.11562e-05	1.48726
3	0	3477.5	1.4871	5.6741e-05	1.48704
3	0	3496.5	1.48689	5.88035e-05	1.48684
3	0	3515.5	1.48668	5.83757e-05	1.48662
3	0	3534.5	1.48647	5.83299e-05	1.48641
3	0	3553.5	1.48629	5.92465e-05	1.48623
3	0	3572.5	1.48612	5.91472e-05	1.48606
3	0	3591.5	1.48595	5.93229e-05	1.48589
3	0	3610.5	1.48573	5.87424e-05	1.48568
3	0	3629.5	1.48534	5.93305e-05	1.48528
3	0	3648.5	1.485	5.75584e-05	1.48494
3	0	3667.5	1.48471	5.78028e-05	1.48466
3	0	3686.5	1.48455	5.44418e-05	1.4845
3	0	3705.5	1.48439	5.32502e-05	1.48434
3	0	3724.5	1.48417	5.28224e-05	1.48412
3	0	3743.5	1.48404	5.38689e-05	1.48398
3	0	3762.5	1.4839	5.41133e-05	1.48385
3	0	3781.5	1.48376	5.78334e-05	1.48371
3	0	3800.5	1.48357	5.74514e-05	1.48352
3	0	3819.5	1.48334	5.36856e-05	1.48328
3	0	3838.5	1.48315	4.8308e-05	1.4831
3	0	3857.5	1.48297	4.93621e-05	1.48292
3	0	3876.5	1.48259	5.47321e-05	1.48254
3	0	3895.5	1.48233	5.00878e-05	1.48228
3	0	3914.5	1.48205	5.32196e-05	1.48199
3	0	3933.5	1.4818	5.54119e-05	1.48175
3	0	3952.5	1.48157	5.8307e-05	1.48151
3	0	3971.5	1.48133	5.38307e-05	1.48128
3	0	3990.5	1.47992	5.72452e-05	1.47987
3	0	4009.5	1.47948	5.22266e-05	1.47943
3	0	4028.5	1.47928	5.85438e-05	1.47922
3	0	4047.5	1.47908	5.65348e-05	1.47902
3	0	4066.5	1.47897	5.8666e-05	1.47891
3	0	4085.5	1.47889	5.82458e-05	1.47883
3	0	4104.5	1.47878	6.07895e-05	1.47872
3	0	4123.5	1.47868	5.6214e-05	1.47862
3	0	4142.5	1.47861	5.72146e-05	1.47855
3	0	4161.5	1.47854	5.35099e-05	1.47849
3	0	4180.5	1.47842	5.94604e-05	1.47836
3	0	4199.5	1.47823	5.83299e-05	1.47817
3	0	4218.5	1.47799	6.03083e-05	1.47793
3	0	4237.5	1.4778	5.62369e-05	1.47774
3	0	4256.5	1.47766	5.80625e-05	1.4776
3	0	4275.5	1.47757	5.97277e-05	1.47751
3	0	4294.5	1.47748	5.85208e-05	1.47742
3	0	4313.5	1.47741	5.32884e-05	1.47736
3	0	4332.5	1.47734	6.24394e-05	1.47727
3	0	4351.5	1.47725	6.18895e-05	1.47719
3	0	4370.5	1.47719	5.94986e-05	1.47713
3	0	4389.5	1.4771	5.67487e-05	1.47705
3	0	4408.5	1.47697	5.60841e-05	1.47692
3	0	4427.5	1.47675	5.39453e-05	1.4767
3	0	4446.5	1.47652	5.25016e-05	1.47646
3	0	4465.5	1.47612	5.50223e-05	1.47607
3	0	4484.5	1.47573	5.6214e-05	1.47568
3	0	4503.5	1.47526	6.13166e-05	1.4752
3	0	4522.5	1.47481	5.93687e-05	1.47475
3	0	4541.5	1.47429	5.70771e-05	1.47424
3	0	4560.5	1.47327	5.08211e-05	1.47322
3	0	4579.5	1.47267	5.25627e-05	1.47261
3	0	4598.5	1.47199	5.73598e-05	1.47193
3	0	4617.5	1.47095	5.93534e-05	1.47089
3	0	4636.5	1.46997	5.81389e-05	1.46991
3	0	4655.5	1.4691	6.04916e-05	1.46904
3	0	4674.5	1.46828	6.35929e-05	1.46822
3	0	4693.5	1.46741	6.58004e-05	1.46735
3	0	4712.5	1.46656	6.23631e-05	1.4665
3	0	4731.5	1.46559	5.99034e-05	1.46554
3	0	4750.5	1.46464	5.98423e-05	1.46458
3	0	4769.5	1.46389	5.72452e-05	1.46384
3	0	4788.5	1.46316	6.18284e-05	1.4631
3	0	4807.5	1.46241	6.1393e-05	1.46235
3	0	4826.5	1.46181	5.80931e-05	1.46176
3	0	4845.5	1.4614	5.69014e-05	1.46135
3	0	4864.5	1.46102	6.01402e-05	1.46096
3	0	4883.5	1.4607	5.91548e-05	1.46064
3	0	4902.5	1.46036	6.35852e-05	1.4603
3	0	4921.5	1.4601	5.27842e-05	1.46005
3	0	4940.5	1.45994	5.64431e-05	1.45988
3	0	4942.7	1.45992	5.72246e-05	1.45986