Folder: echemistpy/docs/examples/opeando_xrd/IS17_D/Echem/A

Note: docs/README.md
# 文档概览

`docs/Characterization/` 目录保留了 EQCM、XRD、XPS 等实验表征资料，可在撰写技术文档或学术报告时引用。
后续若集成 Sphinx/MkDocs，可在本目录下新增 `conf.py` 或 `mkdocs.yml`。

File: ZMO_D_C03.mpt
EC-Lab ASCII FILE
Nb header lines : 84

Galvanostatic Cycling with Potential Limitation

Run on channel : 3 (SN 37153)
User :
CE vs. WE compliance from -10 V to 10 V
Electrode connection : standard
Potential control : Ewe
Ewe ctrl range : min = 0.00 V, max = 5.00 V
Safety Limits :
	Do not start on E overload
Acquisition started on : 09/23/2025 16:11:07.633
Technique started on : 09/23/2025 16:11:07.633
Loaded Setting File :  L:\projects\cycle2025-II\20250340008-atejeroplaza\DATA\elChem\16_FC_NP47_fresh_4p3V_C16_cell22.mps
Saved on :
	File : ZMO_D_C03.mpr
	Directory : L:\projects\cycle2025-II\20250340211-lsimonelli\EC_lab\
	Host : 84.89.224.156
Device : VSP (SN 1760)
Address : 10.0.48.120
EC-LAB for windows v11.61 (software)
Internet server v11.61 (firmware)
Command interpretor v11.61 (firmware)
Electrode material : NMF111_FC
Initial state : x=1
Electrolyte : NaPF6 ECDEC
Comments : Cell: MSPD_06
Comments : N/P 0.47
Comments : aged 100 cycles 4.3V
Comments : mAM=6.504mg
Mass of active material : 6.504 mg
 at x = 1.000
Molecular weight of active material (at x = 0) : 87.930 g/mol
Atomic weight of intercalated ion : 22.990 g/mol
Acquisition started at : xo = 1.000
Number of e- transfered per intercalated ion : 1
for DX = 1, DQ = 1.572 mA.h
Battery capacity : 1.572 mA.h
Electrode surface area : 1.000 cm²
Characteristic mass : 6.504 mg
Volume (V) : 0.001 cm³
Record Ece
Text export
   Mode : Standard
   Time format : Elapsed
Cycle Definition : Charge/Discharge alternance
Ns                  0                   1                   2
Set I/C             I                   I                   I
Is                  0.000               -100.000            100.000
unit Is             mA                  µA                  µA
vs.                 <None>              <None>              <None>
N                   1.00                16.10               16.10
I sign              > 0                 < 0                 < 0
t1 (h:m:s)          0:00:0.0000         10:00:0.0000        10:00:0.0000
I Range             100 µA              100 µA              100 µA
Bandwidth           5                   5                   5
dE1 (mV)            0.00                0.00                0.00
dt1 (s)             0.0000              10.0000             10.0000
EM (V)              0.000               0.900               1.850
tM (h:m:s)          0:00:0.0000         0:00:0.0000         0:00:0.0000
Im                  0.000               0.000               0.000
unit Im             mA                  mA                  mA
dI/dt               0.000               0.000               0.000
dunit dI/dt         mA/s                mA/s                mA/s
E range min (V)     0.000               0.000               0.000
E range max (V)     5.000               5.000               5.000
dq                  0.000               1.000               1.000
unit dq             mA.h                mA.h                mA.h
dtq (s)             0.0000              60.0000             60.0000
dQM                 0.000               0.000               0.000
unit dQM            mA.h                mA.h                mA.h
dxM                 0.000               0.000               0.000
delta SoC (%)       pass                pass                pass
tR (h:m:s)          100:00:10.0000      0:00:0.0000         0:00:0.0000
dER/dt (mV/h)       0.0                 0.0                 0.0
dER (mV)            0.00                0.00                0.00
dtR (s)             1.0000              10.0000             10.0000
EL (V)              pass                pass                pass
goto Ns'            0                   1                   1
nc cycles           0                   0                   10

mode	ox/red	error	control changes	Ns changes	counter inc.	Ns	time/s	dq/mA.h	(Q-Qo)/mA.h	control/V/mA	Ewe/V	Ece/V	I Range	Q charge/discharge/mA.h	half cycle	Energy we charge/W.h	Energy we discharge/W.h	Capacitance charge/µF	Capacitance discharge/µF	step time/s	<I>/mA	x	Q discharge/mA.h	Q charge/mA.h	Capacity/mA.h	Efficiency/%	control/V	control/mA	cycle number	Pwe/W	Pce/W	Pwe-ce/W	Ewe-Ece/V	Rwe/Ohm	Rce/Ohm	Rwe-ce/Ohm
3	0	0	0	0	0	0	0.000000000000000E+000	0.000000000000000E+000	0.000000000000000E+000	0.0000000E+000	1.5328	0.000162939	14	0.000000000000000E+000	0	0.000000000000000E+000	0.000000000000000E+000	0.000000000000000E+000	0.000000000000000E+000	0.000000000000000E+000	0.000000000000000E+000	1	0.000000000000000E+000	0.000000000000000E+000	0.000000000000000E+000	0.0000000E+000	0.0000000E+000	0.0000000E+000	0.000000000000000E+000	0.0000000E+000	0.0000000E+000	0.0000000E+000	1.53263	0.0000000E+000	0.0000000E+000	0.0000000E+000
3	0	0	0	0	0	0	77	0.000000000000000E+000	0.000000000000000E+000	0.0000000E+000	1.53245	-8.53157e-05	14	0.000000000000000E+000	0	0.000000000000000E+000	0.000000000000000E+000	0.000000000000000E+000	0.000000000000000E+000	77	0.000000000000000E+000	1	0.000000000000000E+000	0.000000000000000E+000	0.000000000000000E+000	0.0000000E+000	0.0000000E+000	0.0000000E+000	0.000000000000000E+000	0.0000000E+000	0.0000000E+000	0.0000000E+000	1.53254	0.0000000E+000	0.0000000E+000	0.0000000E+000
3	0	0	0	0	0	0	154	0.000000000000000E+000	0.000000000000000E+000	0.0000000E+000	1.53228	1.01669e-05	14	0.000000000000000E+000	0	0.000000000000000E+000	0.000000000000000E+000	0.000000000000000E+000	0.000000000000000E+000	154	0.000000000000000E+000	1	0.000000000000000E+000	0.000000000000000E+000	0.000000000000000E+000	0.0000000E+000	0.0000000E+000	0.0000000E+000	0.000000000000000E+000	0.0000000E+000	0.0000000E+000	0.0000000E+000	1.53227	0.0000000E+000	0.0000000E+000	0.0000000E+000
3	0	0	0	0	0	0	231	0.000000000000000E+000	0.000000000000000E+000	0.0000000E+000	1.5318	-4.71227e-05	14	0.000000000000000E+000	0	0.000000000000000E+000	0.000000000000000E+000	0.000000000000000E+000	0.000000000000000E+000	231	0.000000000000000E+000	1	0.000000000000000E+000	0.000000000000000E+000	0.000000000000000E+000	0.0000000E+000	0.0000000E+000	0.0000000E+000	0.000000000000000E+000	0.0000000E+000	0.0000000E+000	0.0000000E+000	1.53185	0.0000000E+000	0.0000000E+000	0.0000000E+000
3	0	0	0	0	0	0	308	0.000000000000000E+000	0.000000000000000E+000	0.0000000E+000	1.53156	1.01669e-05	14	0.000000000000000E+000	0	0.000000000000000E+000	0.000000000000000E+000	0.000000000000000E+000	0.000000000000000E+000	308	0.000000000000000E+000	1	0.000000000000000E+000	0.000000000000000E+000	0.000000000000000E+000	0.0000000E+000	0.0000000E+000	0.0000000E+000	0.000000000000000E+000	0.0000000E+000	0.0000000E+000	0.0000000E+000	1.53155	0.0000000E+000	0.0000000E+000	0.0000000E+000
3	0	0	0	0	0	0	385	0.000000000000000E+000	0.000000000000000E+000	0.0000000E+000	1.53136	6.74564e-05	14	0.000000000000000E+000	0	0.000000000000000E+000	0.000000000000000E+000	0.000000000000000E+000	0.000000000000000E+000	385	0.000000000000000E+000	1	0.000000000000000E+000	0.000000000000000E+000	0.000000000000000E+000	0.0000000E+000	0.0000000E+000	0.0000000E+000	0.000000000000000E+000	0.0000000E+000	0.0000000E+000	0.0000000E+000	1.5313	0.0000000E+000	0.0000000E+000	0.0000000E+000
3	0	0	0	0	0	0	462	0.000000000000000E+000	0.000000000000000E+000	0.0000000E+000	1.531	-8.92964e-06	14	0.000000000000000E+000	0	0.000000000000000E+000	0.000000000000000E+000	0.000000000000000E+000	0.000000000000000E+000	462	0.000000000000000E+000	1	0.000000000000000E+000	0.000000000000000E+000	0.000000000000000E+000	0.0000000E+000	0.0000000E+000	0.0000000E+000	0.000000000000000E+000	0.0000000E+000	0.0000000E+000	0.0000000E+000	1.53101	0.0000000E+000	0.0000000E+000	0.0000000E+000
3	0	0	0	0	0	0	539	0.000000000000000E+000	0.000000000000000E+000	0.0000000E+000	1.53081	-2.80262e-05	14	0.000000000000000E+000	0	0.000000000000000E+000	0.000000000000000E+000	0.000000000000000E+000	0.000000000000000E+000	539	0.000000000000000E+000	1	0.000000000000000E+000	0.000000000000000E+000	0.000000000000000E+000	0.0000000E+000	0.0000000E+000	0.0000000E+000	0.000000000000000E+000	0.0000000E+000	0.0000000E+000	0.0000000E+000	1.53084	0.0000000E+000	0.0000000E+000	0.0000000E+000
3	0	0	0	0	0	0	616	0.000000000000000E+000	0.000000000000000E+000	0.0000000E+000	1.53062	8.6553e-05	14	0.000000000000000E+000	0	0.000000000000000E+000	0.000000000000000E+000	0.000000000000000E+000	0.000000000000000E+000	616	0.000000000000000E+000	1	0.000000000000000E+000	0.000000000000000E+000	0.000000000000000E+000	0.0000000E+000	0.0000000E+000	0.0000000E+000	0.000000000000000E+000	0.0000000E+000	0.0000000E+000	0.0000000E+000	1.53053	0.0000000E+000	0.0000000E+000	0.0000000E+000
3	0	0	0	0	0	0	693	0.000000000000000E+000	0.000000000000000E+000	0.0000000E+000	1.53026	1.01669e-05	14	0.000000000000000E+000	0	0.000000000000000E+000	0.000000000000000E+000	0.000000000000000E+000	0.000000000000000E+000	693	0.000000000000000E+000	1	0.000000000000000E+000	0.000000000000000E+000	0.000000000000000E+000	0.0000000E+000	0.0000000E+000	0.0000000E+000	0.000000000000000E+000	0.0000000E+000	0.0000000E+000	0.0000000E+000	1.53025	0.0000000E+000	0.0000000E+000	0.0000000E+000
3	0	0	0	0	0	0	770	0.000000000000000E+000	0.000000000000000E+000	0.0000000E+000	1.53007	2.92634e-05	14	0.000000000000000E+000	0	0.000000000000000E+000	0.000000000000000E+000	0.000000000000000E+000	0.000000000000000E+000	770	0.000000000000000E+000	1	0.000000000000000E+000	0.000000000000000E+000	0.000000000000000E+000	0.0000000E+000	0.0000000E+000	0.0000000E+000	0.000000000000000E+000	0.0000000E+000	0.0000000E+000	0.0000000E+000	1.53004	0.0000000E+000	0.0000000E+000	0.0000000E+000
3	0	0	0	0	0	0	847	0.000000000000000E+000	0.000000000000000E+000	0.0000000E+000	1.52978	4.83599e-05	14	0.000000000000000E+000	0	0.000000000000000E+000	0.000000000000000E+000	0.000000000000000E+000	0.000000000000000E+000	847	0.000000000000000E+000	1	0.000000000000000E+000	0.000000000000000E+000	0.000000000000000E+000	0.0000000E+000	0.0000000E+000	0.0000000E+000	0.000000000000000E+000	0.0000000E+000	0.0000000E+000	0.0000000E+000	1.52973	0.0000000E+000	0.0000000E+000	0.0000000E+000
3	0	0	0	0	0	0	924	0.000000000000000E+000	0.000000000000000E+000	0.0000000E+000	1.52944	8.6553e-05	14	0.000000000000000E+000	0	0.000000000000000E+000	0.000000000000000E+000	0.000000000000000E+000	0.000000000000000E+000	924	0.000000000000000E+000	1	0.000000000000000E+000	0.000000000000000E+000	0.000000000000000E+000	0.0000000E+000	0.0000000E+000	0.0000000E+000	0.000000000000000E+000	0.0000000E+000	0.0000000E+000	0.0000000E+000	1.52935	0.0000000E+000	0.0000000E+000	0.0000000E+000
3	0	0	0	0	0	0	1001	0.000000000000000E+000	0.000000000000000E+000	0.0000000E+000	1.52926	-4.71227e-05	14	0.000000000000000E+000	0	0.000000000000000E+000	0.000000000000000E+000	0.000000000000000E+000	0.000000000000000E+000	1001	0.000000000000000E+000	1	0.000000000000000E+000	0.000000000000000E+000	0.000000000000000E+000	0.0000000E+000	0.0000000E+000	0.0000000E+000	0.000000000000000E+000	0.0000000E+000	0.0000000E+000	0.0000000E+000	1.52931	0.0000000E+000	0.0000000E+000	0.0000000E+000
3	0	0	0	0	0	0	1078	0.000000000000000E+000	0.000000000000000E+000	0.0000000E+000	1.52875	0.000105649	14	0.000000000000000E+000	0	0.000000000000000E+000	0.000000000000000E+000	0.000000000000000E+000	0.000000000000000E+000	1078	0.000000000000000E+000	1	0.000000000000000E+000	0.000000000000000E+000	0.000000000000000E+000	0.0000000E+000	0.0000000E+000	0.0000000E+000	0.000000000000000E+000	0.0000000E+000	0.0000000E+000	0.0000000E+000	1.52864	0.0000000E+000	0.0000000E+000	0.0000000E+000
3	0	0	0	0	0	0	1155	0.000000000000000E+000	0.000000000000000E+000	0.0000000E+000	1.52877	-0.000161702	14	0.000000000000000E+000	0	0.000000000000000E+000	0.000000000000000E+000	0.000000000000000E+000	0.000000000000000E+000	1155	0.000000000000000E+000	1	0.000000000000000E+000	0.000000000000000E+000	0.000000000000000E+000	0.0000000E+000	0.0000000E+000	0.0000000E+000	0.000000000000000E+000	0.0000000E+000	0.0000000E+000	0.0000000E+000	1.52893	0.0000000E+000	0.0000000E+000	0.0000000E+000
3	0	0	0	0	0	0	1232	0.000000000000000E+000	0.000000000000000E+000	0.0000000E+000	1.52852	0.000105649	14	0.000000000000000E+000	0	0.000000000000000E+000	0.000000000000000E+000	0.000000000000000E+000	0.000000000000000E+000	1232	0.000000000000000E+000	1	0.000000000000000E+000	0.000000000000000E+000	0.000000000000000E+000	0.0000000E+000	0.0000000E+000	0.0000000E+000	0.000000000000000E+000	0.0000000E+000	0.0000000E+000	0.0000000E+000	1.52841	0.0000000E+000	0.0000000E+000	0.0000000E+000
3	0	0	0	0	0	0	1309	0.000000000000000E+000	0.000000000000000E+000	0.0000000E+000	1.52827	4.83599e-05	14	0.000000000000000E+000	0	0.000000000000000E+000	0.000000000000000E+000	0.000000000000000E+000	0.000000000000000E+000	1309	0.000000000000000E+000	1	0.000000000000000E+000	0.000000000000000E+000	0.000000000000000E+000	0.0000000E+000	0.0000000E+000	0.0000000E+000	0.000000000000000E+000	0.0000000E+000	0.0000000E+000	0.0000000E+000	1.52822	0.0000000E+000	0.0000000E+000	0.0000000E+000
3	0	0	0	0	0	0	1386	0.000000000000000E+000	0.000000000000000E+000	0.0000000E+000	1.52812	-8.53157e-05	14	0.000000000000000E+000	0	0.000000000000000E+000	0.000000000000000E+000	0.000000000000000E+000	0.000000000000000E+000	1386	0.000000000000000E+000	1	0.000000000000000E+000	0.000000000000000E+000	0.000000000000000E+000	0.0000000E+000	0.0000000E+000	0.0000000E+000	0.000000000000000E+000	0.0000000E+000	0.0000000E+000	0.0000000E+000	1.5282	0.0000000E+000	0.0000000E+000	0.0000000E+000
3	0	0	0	0	0	0	1463	0.000000000000000E+000	0.000000000000000E+000	0.0000000E+000	1.52766	0.000105649	14	0.000000000000000E+000	0	0.000000000000000E+000	0.000000000000000E+000	0.000000000000000E+000	0.000000000000000E+000	1463	0.000000000000000E+000	1	0.000000000000000E+000	0.000000000000000E+000	0.000000000000000E+000	0.0000000E+000	0.0000000E+000	0.0000000E+000	0.000000000000000E+000	0.0000000E+000	0.0000000E+000	0.0000000E+000	1.52755	0.0000000E+000	0.0000000E+000	0.0000000E+000
3	0	0	0	0	0	0	1540	0.000000000000000E+000	0.000000000000000E+000	0.0000000E+000	1.52747	-6.62192e-05	14	0.000000000000000E+000	0	0.000000000000000E+000	0.000000000000000E+000	0.000000000000000E+000	0.000000000000000E+000	1540	0.000000000000000E+000	1	0.000000000000000E+000	0.000000000000000E+000	0.000000000000000E+000	0.0000000E+000	0.0000000E+000	0.0000000E+000	0.000000000000000E+000	0.0000000E+000	0.0000000E+000	0.0000000E+000	1.52753	0.0000000E+000	0.0000000E+000	0.0000000E+000
3	0	0	0	0	0	0	1580.16	0.000000000000000E+000	0.000000000000000E+000	0.0000000E+000	1.52739	6.74564e-05	14	0.000000000000000E+000	0	0.000000000000000E+000	0.000000000000000E+000	0.000000000000000E+000	0.000000000000000E+000	1580.16	0.000000000000000E+000	1	0.000000000000000E+000	0.000000000000000E+000	0.000000000000000E+000	0.0000000E+000	0.0000000E+000	0.0000000E+000	0.000000000000000E+000	0.0000000E+000	0.0000000E+000	0.0000000E+000	1.52732	0.0000000E+000	0.0000000E+000	0.0000000E+000