Folder: echemistpy/docs/examples/opeando_xrd/IS17_D/Echem/B

Note: docs/README.md
# 文档概览

`docs/Characterization/` 目录保留了 EQCM、XRD、XPS 等实验表征资料，可在撰写技术文档或学术报告时引用。
后续若集成 Sphinx/MkDocs，可在本目录下新增 `conf.py` 或 `mkdocs.yml`。

File: ZMO_D_C03.mpt
EC-Lab ASCII FILE
Nb header lines : 84

Galvanostatic Cycling with Potential Limitation

Run on channel : 3 (SN 37153)
User :
CE vs. WE compliance from -10 V to 10 V
Electrode connection : standard
Potential control : Ewe
Ewe ctrl range : min = 0.00 V, max = 5.00 V
Safety Limits :
	Do not start on E overload
Acquisition started on : 09/23/2025 16:37:38.524
Technique started on : 09/23/2025 16:37:38.524
Loaded Setting File :  L:\projects\cycle2025-II\20250340008-atejeroplaza\DATA\elChem\16_FC_NP47_fresh_4p3V_C16_cell22.mps
Saved on :
	File : ZMO_D_C03.mpr
	Directory : L:\projects\cycle2025-II\20250340211-lsimonelli\DATA\elchem\
	Host : 84.89.224.156
Device : VSP (SN 1760)
Address : 10.0.48.120
EC-LAB for windows v11.61 (software)
Internet server v11.61 (firmware)
Command interpretor v11.61 (firmware)
Electrode material : NMF111_FC
Initial state : x=1
Electrolyte : NaPF6 ECDEC
Comments : Cell: MSPD_06
Comments : N/P 0.47
Comments : aged 100 cycles 4.3V
Comments : mAM=6.504mg
Mass of active material : 6.504 mg
 at x = 1.000
Molecular weight of active material (at x = 0) : 87.930 g/mol
Atomic weight of intercalated ion : 22.990 g/mol
Acquisition started at : xo = 1.000
Number of e- transfered per intercalated ion : 1
for DX = 1, DQ = 1.572 mA.h
Battery capacity : 1.572 mA.h
Electrode surface area : 1.000 cm²
Characteristic mass : 6.504 mg
Volume (V) : 0.001 cm³
Record Ece
Text export
   Mode : Standard
   Time format : Elapsed
Cycle Definition : Charge/Discharge alternance
Ns                  0                   1                   2
Set I/C             I                   I                   I
Is                  0.000               -100.000            100.000
unit Is             mA                  µA                  µA
vs.                 <None>              <None>              <None>
N                   1.00                16.10               16.10
I sign              > 0                 < 0                 < 0
t1 (h:m:s)          0:00:0.0000         10:00:0.0000        10:00:0.0000
I Range             100 µA              100 µA              100 µA
Bandwidth           5                   5                   5
dE1 (mV)            0.00                0.00                0.00
dt1 (s)             0.0000              10.0000             10.0000
EM (V)              0.000               0.900               1.850
tM (h:m:s)          0:00:0.0000         0:00:0.0000         0:00:0.0000
Im                  0.000               0.000               0.000
unit Im             mA                  mA                  mA
dI/dt               0.000               0.000               0.000
dunit dI/dt         mA/s                mA/s                mA/s
E range min (V)     0.000               0.000               0.000
E range max (V)     5.000               5.000               5.000
dq                  0.000               1.000               1.000
unit dq             mA.h                mA.h                mA.h
dtq (s)             0.0000              60.0000             60.0000
dQM                 0.000               0.000               0.000
unit dQM            mA.h                mA.h                mA.h
dxM                 0.000               0.000               0.000
delta SoC (%)       pass                pass                pass
tR (h:m:s)          100:00:10.0000      0:00:0.0000         0:00:0.0000
dER/dt (mV/h)       0.0                 0.0                 0.0
dER (mV)            0.00                0.00                0.00
dtR (s)             1.0000              10.0000             10.0000
EL (V)              pass                pass                pass
goto Ns'            0                   1                   1
nc cycles           0                   0                   10

mode	ox/red	error	control changes	Ns changes	counter inc.	Ns	time/s	dq/mA.h	(Q-Qo)/mA.h	control/V/mA	Ewe/V	Ece/V	I Range	Q charge/discharge/mA.h	half cycle	Energy we charge/W.h	Energy we discharge/W.h	Capacitance charge/µF	Capacitance discharge/µF	step time/s	<I>/mA	x	Q discharge/mA.h	Q charge/mA.h	Capacity/mA.h	Efficiency/%	control/V	control/mA	cycle number	Pwe/W	Pce/W	Pwe-ce/W	Ewe-Ece/V	Rwe/Ohm	Rce/Ohm	Rwe-ce/Ohm
3	0	0	0	0	0	0	0.000000000000000E+000	0.000000000000000E+000	0.000000000000000E+000	0.0000000E+000	1.52726	6.74564e-05	14	0.000000000000000E+000	0	0.000000000000000E+000	0.000000000000000E+000	0.000000000000000E+000	0.000000000000000E+000	0.000000000000000E+000	0.000000000000000E+000	1	0.000000000000000E+000	0.000000000000000E+000	0.000000000000000E+000	0.0000000E+000	0.0000000E+000	0.0000000E+000	0.000000000000000E+000	0.0000000E+000	0.0000000E+000	0.0000000E+000	1.52719	0.0000000E+000	0.0000000E+000	0.0000000E+000
3	0	0	0	0	0	0	299	0.000000000000000E+000	0.000000000000000E+000	0.0000000E+000	1.5264	-6.62192e-05	14	0.000000000000000E+000	0	0.000000000000000E+000	0.000000000000000E+000	0.000000000000000E+000	0.000000000000000E+000	299	0.000000000000000E+000	1	0.000000000000000E+000	0.000000000000000E+000	0.000000000000000E+000	0.0000000E+000	0.0000000E+000	0.0000000E+000	0.000000000000000E+000	0.0000000E+000	0.0000000E+000	0.0000000E+000	1.52647	0.0000000E+000	0.0000000E+000	0.0000000E+000
3	0	0	0	0	0	0	598	0.000000000000000E+000	0.000000000000000E+000	0.0000000E+000	1.52552	6.74564e-05	14	0.000000000000000E+000	0	0.000000000000000E+000	0.000000000000000E+000	0.000000000000000E+000	0.000000000000000E+000	598	0.000000000000000E+000	1	0.000000000000000E+000	0.000000000000000E+000	0.000000000000000E+000	0.0000000E+000	0.0000000E+000	0.0000000E+000	0.000000000000000E+000	0.0000000E+000	0.0000000E+000	0.0000000E+000	1.52545	0.0000000E+000	0.0000000E+000	0.0000000E+000
3	0	0	0	0	0	0	897	0.000000000000000E+000	0.000000000000000E+000	0.0000000E+000	1.52468	0.000124746	14	0.000000000000000E+000	0	0.000000000000000E+000	0.000000000000000E+000	0.000000000000000E+000	0.000000000000000E+000	897	0.000000000000000E+000	1	0.000000000000000E+000	0.000000000000000E+000	0.000000000000000E+000	0.0000000E+000	0.0000000E+000	0.0000000E+000	0.000000000000000E+000	0.0000000E+000	0.0000000E+000	0.0000000E+000	1.52456	0.0000000E+000	0.0000000E+000	0.0000000E+000
3	0	0	0	0	0	0	1196	0.000000000000000E+000	0.000000000000000E+000	0.0000000E+000	1.52382	2.92634e-05	14	0.000000000000000E+000	0	0.000000000000000E+000	0.000000000000000E+000	0.000000000000000E+000	0.000000000000000E+000	1196	0.000000000000000E+000	1	0.000000000000000E+000	0.000000000000000E+000	0.000000000000000E+000	0.0000000E+000	0.0000000E+000	0.0000000E+000	0.000000000000000E+000	0.0000000E+000	0.0000000E+000	0.0000000E+000	1.52379	0.0000000E+000	0.0000000E+000	0.0000000E+000
3	0	0	0	0	0	0	1495	0.000000000000000E+000	0.000000000000000E+000	0.0000000E+000	1.52296	-0.000104412	14	0.000000000000000E+000	0	0.000000000000000E+000	0.000000000000000E+000	0.000000000000000E+000	0.000000000000000E+000	1495	0.000000000000000E+000	1	0.000000000000000E+000	0.000000000000000E+000	0.000000000000000E+000	0.0000000E+000	0.0000000E+000	0.0000000E+000	0.000000000000000E+000	0.0000000E+000	0.0000000E+000	0.0000000E+000	1.52307	0.0000000E+000	0.0000000E+000	0.0000000E+000
3	0	0	0	0	0	0	1794	0.000000000000000E+000	0.000000000000000E+000	0.0000000E+000	1.52227	6.74564e-05	14	0.000000000000000E+000	0	0.000000000000000E+000	0.000000000000000E+000	0.000000000000000E+000	0.000000000000000E+000	1794	0.000000000000000E+000	1	0.000000000000000E+000	0.000000000000000E+000	0.000000000000000E+000	0.0000000E+000	0.0000000E+000	0.0000000E+000	0.000000000000000E+000	0.0000000E+000	0.0000000E+000	0.0000000E+000	1.52221	0.0000000E+000	0.0000000E+000	0.0000000E+000
3	0	0	0	0	0	0	2093	0.000000000000000E+000	0.000000000000000E+000	0.0000000E+000	1.5214	4.83599e-05	14	0.000000000000000E+000	0	0.000000000000000E+000	0.000000000000000E+000	0.000000000000000E+000	0.000000000000000E+000	2093	0.000000000000000E+000	1	0.000000000000000E+000	0.000000000000000E+000	0.000000000000000E+000	0.0000000E+000	0.0000000E+000	0.0000000E+000	0.000000000000000E+000	0.0000000E+000	0.0000000E+000	0.0000000E+000	1.52135	0.0000000E+000	0.0000000E+000	0.0000000E+000
3	0	0	0	0	0	0	2392	0.000000000000000E+000	0.000000000000000E+000	0.0000000E+000	1.52063	-4.71227e-05	14	0.000000000000000E+000	0	0.000000000000000E+000	0.000000000000000E+000	0.000000000000000E+000	0.000000000000000E+000	2392	0.000000000000000E+000	1	0.000000000000000E+000	0.000000000000000E+000	0.000000000000000E+000	0.0000000E+000	0.0000000E+000	0.0000000E+000	0.000000000000000E+000	0.0000000E+000	0.0000000E+000	0.0000000E+000	1.52068	0.0000000E+000	0.0000000E+000	0.0000000E+000
3	0	0	0	0	0	0	2691	0.000000000000000E+000	0.000000000000000E+000	0.0000000E+000	1.51985	4.83599e-05	14	0.000000000000000E+000	0	0.000000000000000E+000	0.000000000000000E+000	0.000000000000000E+000	0.000000000000000E+000	2691	0.000000000000000E+000	1	0.000000000000000E+000	0.000000000000000E+000	0.000000000000000E+000	0.0000000E+000	0.0000000E+000	0.0000000E+000	0.000000000000000E+000	0.0000000E+000	0.0000000E+000	0.0000000E+000	1.5198	0.0000000E+000	0.0000000E+000	0.0000000E+000
3	0	0	0	0	0	0	2990	0.000000000000000E+000	0.000000000000000E+000	0.0000000E+000	1.51903	0.000124746	14	0.000000000000000E+000	0	0.000000000000000E+000	0.000000000000000E+000	0.000000000000000E+000	0.000000000000000E+000	2990	0.000000000000000E+000	1	0.000000000000000E+000	0.000000000000000E+000	0.000000000000000E+000	0.0000000E+000	0.0000000E+000	0.0000000E+000	0.000000000000000E+000	0.0000000E+000	0.0000000E+000	0.0000000E+000	1.5189	0.0000000E+000	0.0000000E+000	0.0000000E+000
3	0	0	0	0	0	0	3289	0.000000000000000E+000	0.000000000000000E+000	0.0000000E+000	1.51832	-0.000104412	14	0.000000000000000E+000	0	0.000000000000000E+000	0.000000000000000E+000	0.000000000000000E+000	0.000000000000000E+000	3289	0.000000000000000E+000	1	0.000000000000000E+000	0.000000000000000E+000	0.000000000000000E+000	0.0000000E+000	0.0000000E+000	0.0000000E+000	0.000000000000000E+000	0.0000000E+000	0.0000000E+000	0.0000000E+000	1.51842	0.0000000E+000	0.0000000E+000	0.0000000E+000
3	0	0	0	0	0	0	3588	0.000000000000000E+000	0.000000000000000E+000	0.0000000E+000	1.5175	2.92634e-05	14	0.000000000000000E+000	0	0.000000000000000E+000	0.000000000000000E+000	0.000000000000000E+000	0.000000000000000E+000	3588	0.000000000000000E+000	1	0.000000000000000E+000	0.000000000000000E+000	0.000000000000000E+000	0.0000000E+000	0.0000000E+000	0.0000000E+000	0.000000000000000E+000	0.0000000E+000	0.0000000E+000	0.0000000E+000	1.51747	0.0000000E+000	0.0000000E+000	0.0000000E+000
3	0	0	0	0	0	0	3887	0.000000000000000E+000	0.000000000000000E+000	0.0000000E+000	1.5166	1.01669e-05	14	0.000000000000000E+000	0	0.000000000000000E+000	0.000000000000000E+000	0.000000000000000E+000	0.000000000000000E+000	3887	0.000000000000000E+000	1	0.000000000000000E+000	0.000000000000000E+000	0.000000000000000E+000	0.0000000E+000	0.0000000E+000	0.0000000E+000	0.000000000000000E+000	0.0000000E+000	0.0000000E+000	0.0000000E+000	1.51659	0.0000000E+000	0.0000000E+000	0.0000000E+000
3	0	0	0	0	0	0	4186	0.000000000000000E+000	0.000000000000000E+000	0.0000000E+000	1.5161	4.83599e-05	14	0.000000000000000E+000	0	0.000000000000000E+000	0.000000000000000E+000	0.000000000000000E+000	0.000000000000000E+000	4186	0.000000000000000E+000	1	0.000000000000000E+000	0.000000000000000E+000	0.000000000000000E+000	0.0000000E+000	0.0000000E+000	0.0000000E+000	0.000000000000000E+000	0.0000000E+000	0.0000000E+000	0.0000000E+000	1.51606	0.0000000E+000	0.0000000E+000	0.0000000E+000
3	0	0	0	0	0	0	4485	0.000000000000000E+000	0.000000000000000E+000	0.0000000E+000	1.51517	-2.80262e-05	14	0.000000000000000E+000	0	0.000000000000000E+000	0.000000000000000E+000	0.000000000000000E+000	0.000000000000000E+000	4485	0.000000000000000E+000	1	0.000000000000000E+000	0.000000000000000E+000	0.000000000000000E+000	0.0000000E+000	0.0000000E+000	0.0000000E+000	0.000000000000000E+000	0.0000000E+000	0.0000000E+000	0.0000000E+000	1.5152	0.0000000E+000	0.0000000E+000	0.0000000E+000
3	0	0	0	0	0	0	4784	0.000000000000000E+000	0.000000000000000E+000	0.0000000E+000	1.51454	4.83599e-05	14	0.000000000000000E+000	0	0.000000000000000E+000	0.000000000000000E+000	0.000000000000000E+000	0.000000000000000E+000	4784	0.000000000000000E+000	1	0.000000000000000E+000	0.000000000000000E+000	0.000000000000000E+000	0.0000000E+000	0.0000000E+000	0.0000000E+000	0.000000000000000E+000	0.0000000E+000	0.0000000E+000	0.0000000E+000	1.51449	0.0000000E+000	0.0000000E+000	0.0000000E+000
3	0	0	0	0	0	0	5083	0.000000000000000E+000	0.000000000000000E+000	0.0000000E+000	1.51368	1.01669e-05	14	0.000000000000000E+000	0	0.000000000000000E+000	0.000000000000000E+000	0.000000000000000E+000	0.000000000000000E+000	5083	0.000000000000000E+000	1	0.000000000000000E+000	0.000000000000000E+000	0.000000000000000E+000	0.0000000E+000	0.0000000E+000	0.0000000E+000	0.000000000000000E+000	0.0000000E+000	0.0000000E+000	0.0000000E+000	1.51367	0.0000000E+000	0.0000000E+000	0.0000000E+000
3	0	0	0	0	0	0	5382	0.000000000000000E+000	0.000000000000000E+000	0.0000000E+000	1.51316	4.83599e-05	14	0.000000000000000E+000	0	0.000000000000000E+000	0.000000000000000E+000	0.000000000000000E+000	0.000000000000000E+000	5382	0.000000000000000E+000	1	0.000000000000000E+000	0.000000000000000E+000	0.000000000000000E+000	0.0000000E+000	0.0000000E+000	0.0000000E+000	0.000000000000000E+000	0.0000000E+000	0.0000000E+000	0.0000000E+000	1.51311	0.0000000E+000	0.0000000E+000	0.0000000E+000
3	0	0	0	0	0	0	5681	0.000000000000000E+000	0.000000000000000E+000	0.0000000E+000	1.51246	1.01669e-05	14	0.000000000000000E+000	0	0.000000000000000E+000	0.000000000000000E+000	0.000000000000000E+000	0.000000000000000E+000	5681	0.000000000000000E+000	1	0.000000000000000E+000	0.000000000000000E+000	0.000000000000000E+000	0.0000000E+000	0.0000000E+000	0.0000000E+000	0.000000000000000E+000	0.0000000E+000	0.0000000E+000	0.0000000E+000	1.51245	0.0000000E+000	0.0000000E+000	0.0000000E+000
1	0	0	1	0	0	1	8382.3	-0.000277969	-0.0742177	-0.1	1.2996	6.74564e-05	13	-0.0742177	0	0.000000000000000E+000	0.000102333	0.000000000000000E+000	1.41352e+06	8382.3	-0.100069	1.04723	0.0742177	0.000000000000000E+000	0.0742177	0.0000000E+000	0.0000000E+000	-0.1	0.000000000000000E+000	-0.00013005	-6.75029e-09	-0.000130043	1.29953	12987.1	0.6741	12986.4
1	0	0	1	0	0	1	11372.3	-0.000277967	-0.15733	-0.1	1.10666	4.83599e-05	13	-0.15733	0	0.000000000000000E+000	0.000209004	0.000000000000000E+000	1.48286e+06	11372.3	-0.100068	1.10011	0.15733	0.000000000000000E+000	0.15733	0.0000000E+000	0.0000000E+000	-0.1	0.000000000000000E+000	-0.000110742	-4.83928e-09	-0.000110737	1.10662	11059.1	0.48327	11058.6
1	1	0	1	0	0	2	14337.4	1.10109e-05	-0.151768	0.03	1.42878	-8.92964e-06	13	0.0107091	2	1.59068e-05	0.000000000000000E+000	73805.7	0.000000000000000E+000	2779.92	0.0299706	1.09657	0.000000000000000E+000	0.0107091	0.0107091	0.0000000E+000	0.0000000E+000	0.03	1	4.28215e-05	-2.67627e-10	4.28218e-05	1.42879	47672.9	0.297947	47673.2