Folder: echemistpy/docs/examples/opeando_xrd/IS17_D/Data/IS17_D (part 63)

File: 17_Db_f00008.xye
# /beamlines/bl04/projects/cycle2025-II/20250340211-lsimonelli/DATA/IS17_D/17_Db_f00008.xye : mythproc.py merge -s 0.006 -l 0.5 -f /beamlines/bl04/inhouse/ff/FlatField/ff_20Nov2024rod8mm60s_17keV.raw -b True -c true -o xye /beamlines/bl04/projects/cycle2025-II/20250340211-lsimonelli/DATA/IS17_D/17_Db_00008.dat
# IsMon = [6732173, 6733251, 6737257]  IsPos = [-1.5000, -2.4885, -3.4988]
# Wave = 0.4962  CalPath /beamlines/bl04/projects/cycle2025-II/20250340211-lsimonelli/DATA/Align/Si_Pos1_25keV_f00001.cal
# Date = 2025-09-23_19:55:17 Dt = 4.8000  Bin = 0.0060  <imon> = 6734227 +/- 2187 (Min/Max) 6732173 / 6737257
# icurr 248.8817  mocoIn 1.6993E-05  mocoOut 0.7967  i15 7.05376e+06  imon 6.73423e+06  i7 5.0000  iEMpd_timer 4.8000  iEMpd_1 3.5926E-08  iEMpd_2 7.8333E-08  iEMpd_3 1.7985E-08  iEMpd_4 4.7635E-08  iEMhp_timer 4.8000  iEMhp_1 4.8646E-06  iEMhp_2 -2.4560E-08  iEMhp_3 -2.2996E-08  iEMhp_4 -2.0641E-08
#      9776
 1.7416  68030.7  260.942
 1.9396  46291.5  215.522
 2.1376  33314.5  182.835
 2.3356  29869.8  172.761
 2.5336  31083.6  176.856
 2.7316  25444.4  160.12
 2.9296  24124.1  156.061
 3.1276  23713.7  154.281
 3.3256  22759.1  150.819
 3.5236  24981.1  157.958
 3.7216  22242  150.099
 3.9196  22364.1  149.736
 4.1176  21812  147.678
 4.3156  22828.8  151.236
 4.5136  25697.2  159.459
 4.7116  26353.7  162.581
 4.9096  25575.5  159.622
 5.1076  25280.7  159.267
 5.3056  25311.7  159.073
 5.5036  24720.3  157.218
 5.7016  25195  158.6
 5.8996  25603.1  159.139
 6.0976  26490.3  163.236
 6.2956  26655.6  163.113
 6.4936  27549.1  165.029
 6.6916  27953.5  167.212
 6.8896  28817.3  169.633
 7.0876  30038.2  173.828
 7.2856  29503.6  171.437
 7.4836  30278.4  173.03
 7.6816  31085.4  175.824
 7.8796  31654.7  177.433
 8.0776  35341.3  188.466
 8.2756  35846.1  188.426
 8.4736  35600.4  187.608
 8.6716  35177.8  187.109
 8.8696  36706.5  191.627
 9.0676  35554.3  187.931
 9.2656  33496.7  183.09
 9.4636  32577  179.05
 9.6616  31676.9  177.27
 9.8596  31115.3  175.174
 10.0576  29208.9  170.385
 10.2556  28486.2  168.691
 10.4536  32229.2  179.011
 10.6516  32987.4  181.336
 10.8496  25947  160.236
 11.0476  25897.3  160.058
 11.2456  28322  167.988
 11.4436  25095.2  157.309
 11.6416  24366.8  155.344
 11.8396  23532.5  152.867
 12.0376  22755.5  149.954
 12.2356  24112.8  154.828
 12.4336  23414.6  152.09
 12.6316  22481.4  149.292
 12.8296  22837.9  150.072
 13.0276  22902.9  150.498
 13.2256  22938.7  150.975
 13.4236  23055.3  151.13
 13.6216  23267.9  151.814
 13.8196  26147.7  160.39
 14.0176  22446.7  149.196
 14.2156  22138.2  147.218
 14.4136  20908.9  144.416
 14.6116  20539.6  142.361
 14.8096  19807.2  139.771
 15.0076  19095.4  141.034
 15.2056  18252  133.804
 15.4036  17234.6  130.822
 15.6016  16879.1  128.587
 15.7996  16757.3  128.378
 15.9976  16229.2  129.108
 16.1956  15943.6  125.96
 16.3936  15608.3  123.828
 16.5916  15543.2  124.209
 16.7896  15558.4  124.315
 16.9876  15354.6  124.93
 17.1856  15270.2  123.016
 17.3836  14629  120.316
 17.5816  14306.6  119.441
 17.7796  14467.6  120.041
 17.9776  14292.2  120.064
 18.1756  15648.8  124.349
 18.3736  15121.3  122.728
 18.5716  13642.5  116.327
 18.7696  13761.7  116.414
 18.9676  13489.2  115.065
 19.1656  13165.2  114.232
 19.3636  13015.1  113.771
 19.5616  13063.8  114.146
 19.7596  13237.6  114.322
 19.9576  13861.7  117.019
 20.1556  12880.2  113.311
 20.3536  12698.4  111.919
 20.5516  12512.6  111.522
 20.7496  12422.1  110.978
 20.9476  12954.1  113.175
 21.1456  12683  112.302
 21.3436  12194.5  110.073
 21.5416  12115.2  109.726
 21.7396  11938  108.767
 21.9376  12036.7  108.989
 22.1356  12286.4  110.392
 22.3336  11802.3  108.297
 22.5316  11673.1  107.808
 22.7296  11484.1  106.316
 22.9276  11393.9  106.545
 23.1256  12010.9  108.878
 23.3236  12020.3  109.487
 23.5216  11957.3  108.842
 23.7196  11835.6  108.46
 23.9176  11775.1  107.732
 24.1156  11626.9  107.495
 24.3136  11546.5  107.919
 24.5116  11645.4  107.913
 24.7096  11205.3  105.664
 24.9076  11126.6  105.317
 25.1056  10818.9  104.051
 25.3036  10526.9  102.416
 25.5016  10638.7  102.995
 25.6996  10580.8  102.304
 25.8976  10892.3  104.236
 26.0956  10522.2  102.442
 26.2936  10509.5  102.06
 26.4916  10674.3  102.714
 26.6896  10293.2  101.164
 26.8876  10187.4  100.498
 27.0856  10063  99.9034
 27.2836  9867.14  98.8664
 27.4816  9892.71  98.9245
 27.6796  9860.35  99.1251
 27.8776  10266  101.011
 28.0756  9694.25  98.4279
 28.2736  9735.37  98.2174
 28.4716  9486.23  97.0163
 28.6696  9431.07  96.5843
 28.8676  9330.92  96.415
 29.0656  9224.09  95.8336
 29.2636  9339.67  96.1519
 29.4616  8968.59  94.473
 29.6596  9116.08  94.8244
 29.8576  8894.34  94.324
 30.0556  9111.66  95.336
 30.2536  8917.52  94.1291
 30.4516  9160.47  95.0389
 30.6496  9097.64  94.4595
 30.8476  9056.37  94.6845
 31.0456  8982.97  94.2682
 31.2436  8949.15  93.3719
 31.4416  8916.11  93.3913
 31.6396  9352.97  95.6972
 31.8376  8944.14  93.1134
 32.0356  8827.3  93.0499
 32.2336  8809.57  92.3861
 32.4316  8552.68  91.4125
 32.6296  8609.56  91.4906
 32.8276  8419.34  90.3228
 33.0256  8408.53  90.3365
 33.2236  8505.7  91.0003
 33.4216  8421.36  90.2348
 33.6196  8370.01  90.2517
 33.8176  8526.33  91.254
 34.0156  8361.15  90.0036
 34.2136  8405  90.2668
 34.4116  8147.84  89.0266
 34.6096  8334.14  89.9204
 34.8076  8104.76  89.0807
 35.0056  8184.85  89.1958
 35.2036  8360.59  90.3761
 35.4016  8107.63  88.9019
 35.5996  8156.48  89.2044
 35.7976  8037.57  88.8231
 35.9956  8165.34  89.1802
 36.1936  8129.01  88.8336
 36.3916  7877.43  87.6453
 36.5896  8181.06  90.7631
 36.7876  7805.02  87.5966
 36.9856  7700.24  87.0261
 37.1836  7630.97  85.7754
 37.3816  7618.7  86.0584
 37.5796  7724.45  88.343
 37.7776  7805.27  87.2093
 37.9756  7750.75  86.7889
 38.1736  7981.24  88.251
 38.3716  7959.21  88.4035
 38.5696  7675.8  87.1759
 38.7676  7622.64  86.4135
 38.9656  7623.39  86.046
 39.1636  7621.6  86.2819
 39.3616  7572.49  85.9681
 39.5596  7459.23  86.1217
 39.7576  7485.54  85.682
 39.9556  7679.52  86.4292
 40.1536  7692.88  86.6896
 40.3516  7611.82  86.2544
 40.5496  7700.53  86.7825
 40.7476  7608.75  86.4797
 40.9456  7599.68  86.1978
 41.1436  7709.48  86.5383
 41.3416  7535.54  85.886
 41.5396  7553.52  85.8016
 41.7376  7673.34  86.7339
 41.9356  7529.93  85.7834
 42.1336  7682.76  86.7815
 42.3316  7420.46  85.4885
 42.5296  7625.62  86.183
 42.7276  7522.54  85.8431
 42.9256  7541.95  85.8279
 43.1236  7455.42  85.4435
 43.3216  7479.26  85.4234
 43.5196  7409.6  84.9914
 43.7176  7481.03  85.7921
 43.9156  7134.69  83.6975
 44.1136  7237.51  83.8606
 44.3116  7217.42  83.7526
 44.5096  7271.7  84.3756
 44.7076  7377.33  84.9133
 44.9056  7408.07  84.9622
 45.1036  7351.75  84.2691
 45.3016  7251.15  84.1669
 45.4996  7313.82  84.4756
 45.6976  7149.1  83.7
 45.8956  7275.46  84.2669
 46.0936  7344.67  84.4193
 46.2916  7296.49  84.3666
 46.4896  7246.97  84.1198
 46.6876  7186.14  84.4646
 46.8856  7120.45  83.3361
 47.0836  7218.95  84.1656
 47.2816  7054.03  83.082
 47.4796  7095.39  83.4256
 47.6776  7115.45  84.4851
 47.8756  7139.53  83.8047
 48.0736  7088.06  83.9557
 48.2716  7013.67  83.3218
 48.4696  7116.85  83.5382
 48.6676  7049.85  83.7234
 48.8656  7081.56  83.6355
 49.0636  7175.31  84.1424
 49.2616  6987.99  83.0752
 49.4596  7083.71  83.1972
 49.6576  7022.46  83.0643
 49.8556  7071.2  83.3762
 50.0536  6970.48  83.2167
 50.2516  6976.62  83.3648
 50.4496  7018.99  83.3001
 50.6476  7024.07  83.0071
 50.8456  7000.03  82.9367
 51.0436  6857.02  82.5413
 51.2416  6807.72  81.9178
 51.4396  6759.22  82.0311
 51.6376  6741.03  81.7466
 51.8356  6758.31  81.4752
 52.0336  6725.2  81.782
 52.2316  6710.66  82.0555
 52.4296  6710.44  81.7479
 52.6276  6495.08  80.5338
 52.8256  6807.48  82.0092
 53.0236  6765  82.3991
 53.2216  6684.68  81.9257
 53.4196  6688.55  81.8685
 53.6176  6745.74  82.7311
 53.8156  6687.17  82.0408
 54.0136  6312.93  79.8693
 54.2116  6556.61  81.0316
 54.4096  6317  79.6041
 54.6076  6373.61  80.2986
 54.8056  6278.53  79.4682
 55.0036  6425.7  80.685
 55.2016  6296.45  79.4269
 55.3996  6081.07  78.1325
 55.5976  6263.41  79.4959
 55.7956  6236.98  79.142
 55.9936  6305.45  79.6968
 56.1916  6213.33  79.1505
 56.3896  6051.08  78.0841
 56.5876  5977.95  78.1368
 56.7856  6079.41  78.3164
 56.9836  6194.15  78.8204
 57.1816  6316.83  79.9752
 57.3796  5986.17  77.6794
 57.5776  6033.05  77.884
 57.7756  5958.68  78.0298
 57.9736  5934.83  77.5378
 58.1716  5850.35  77.2643
 58.3696  5720.79  76.1681
 58.5676  5736.63  75.7606
 58.7656  5722.33  76.3209
 58.9636  5720.05  76.3362
 59.1616  5727.8  76.5163
 59.3596  5793.75  76.2185
 59.5576  5760.92  76.0578
 59.7556  5762.55  76.477
 59.9536  5818.91  76.7509
 60.1516  5627.99  76.3005
 60.1996  0.0000000E+00  0.0000000E+00

File: 17_Db_f00009.xye
# /beamlines/bl04/projects/cycle2025-II/20250340211-lsimonelli/DATA/IS17_D/17_Db_f00009.xye : mythproc.py merge -s 0.006 -l 0.5 -f /beamlines/bl04/inhouse/ff/FlatField/ff_20Nov2024rod8mm60s_17keV.raw -b True -c true -o xye /beamlines/bl04/projects/cycle2025-II/20250340211-lsimonelli/DATA/IS17_D/17_Db_00009.dat
# IsMon = [6741133, 6746270, 6752282]  IsPos = [-1.5000, -2.4885, -3.4988]
# Wave = 0.4962  CalPath /beamlines/bl04/projects/cycle2025-II/20250340211-lsimonelli/DATA/Align/Si_Pos1_25keV_f00001.cal
# Date = 2025-09-23_20:11:50 Dt = 4.8000  Bin = 0.0060  <imon> = 6746562 +/- 4556 (Min/Max) 6741133 / 6752282
# icurr 249.8203  mocoIn 1.7047E-05  mocoOut 0.7996  i15 7.0633e+06  imon 6.74656e+06  i7 7.0000  iEMpd_timer 4.8000  iEMpd_1 3.4785E-08  iEMpd_2 7.8867E-08  iEMpd_3 1.8627E-08  iEMpd_4 4.8236E-08  iEMhp_timer 4.8000  iEMhp_1 4.8817E-06  iEMhp_2 -2.4853E-08  iEMhp_3 -2.2575E-08  iEMhp_4 -2.1202E-08
#      9776
 1.7416  68371.8  261.66
 1.9396  46497  216.055
 2.1376  33643.4  183.781
 2.3356  30097.1  173.46
 2.5336  30811.6  176.125
 2.7316  25788.1  161.214
 2.9296  24049.1  155.826
 3.1276  23713.7  154.307
 3.3256  23090.9  151.92
 3.5236  24783.7  157.346
 3.7216  22462.8  150.846
 3.9196  22647  150.685
 4.1176  22029.4  148.426
 4.3156  23065.7  152.007
 4.5136  26101.7  160.701
 4.7116  26654.2  163.514
 4.9096  25758.8  160.188
 5.1076  25358.7  159.522
 5.3056  25254.4  158.885
 5.5036  25050.5  158.264
 5.7016  25538.5  159.678
 5.8996  25878.4  159.992
 6.0976  26558.5  163.457
 6.2956  26712.7  163.274
 6.4936  27816.8  165.846
 6.6916  27950.5  167.2
 6.8896  29033.3  170.266
 7.0876  30150.1  174.164
 7.2856  29728.7  172.087
 7.4836  30339.5  173.212
 7.6816  31131.2  175.95
 7.8796  31878.3  178.025
 8.0776  35528.2  188.94
 8.2756  35836.4  188.377
 8.4736  35655.7  187.73
 8.6716  35142.9  186.996
 8.8696  36970.9  192.323
 9.0676  36015.1  189.154
 9.2656  33873.1  184.118
 9.4636  32644.2  179.229
 9.6616  31808.8  177.619
 9.8596  31477.1  176.22
 10.0576  29241.5  170.496
 10.2556  28590.1  169.015
 10.4536  32473.6  179.714
 10.6516  33141.6  181.779
 10.8496  26191.5  160.99
 11.0476  25949.9  160.22
 11.2456  28517.4  168.562
 11.4436  25143.1  157.46
 11.6416  24606.3  156.112
 11.8396  23477.2  152.699
 12.0376  22815.4  150.144
 12.2356  24263.7  155.308
 12.4336  23411.8  152.077
 12.6316  22482.4  149.304
 12.8296  23017.1  150.676
 13.0276  23053.3  150.982
 13.2256  23001.3  151.18
 13.4236  23238.1  151.732
 13.6216  23361.7  152.147
 13.8196  26223.6  160.59
 14.0176  22516.1  149.415
 14.2156  21983.3  146.703
 14.4136  20879  144.311
 14.6116  20527.1  142.303
 14.8096  19814.6  139.789
 15.0076  19259  141.64
 15.2056  17956.6  132.703
 15.4036  17432  131.547
 15.6016  16930.1  128.766
 15.7996  16732.7  128.267
 15.9976  16330.9  129.529
 16.1956  16010.3  126.213
 16.3936  15711.7  124.255
 16.5916  15573  124.323
 16.7896  15512.4  124.141
 16.9876  15391.4  125.08
 17.1856  15371.3  123.423
 17.3836  14627.3  120.321
 17.5816  14228.7  119.131
 17.7796  14570.5  120.487
 17.9776  14298.2  120.095
 18.1756  15638  124.304
 18.3736  15204.4  123.064
 18.5716  13678.5  116.484
 18.7696  13688.3  116.106
 18.9676  13549.1  115.318
 19.1656  13183.6  114.306
 19.3636  13148.2  114.355
 19.5616  13184.8  114.675
 19.7596  13355.7  114.849
 19.9576  13797.5  116.754
 20.1556  12998.4  113.815
 20.3536  12887.9  112.746
 20.5516  12496.6  111.449
 20.7496  12491.4  111.297
 20.9476  12966.3  113.239
 21.1456  12742.9  112.558
 21.3436  12277.7  110.446
 21.5416  12190.6  110.068
 21.7396  11963  108.877
 21.9376  12036  108.98
 22.1356  12427.4  111.028
 22.3336  11920.4  108.825
 22.5316  11757.2  108.185
 22.7296  11477.4  106.28
 22.9276  11580.1  107.4
 23.1256  11975.9  108.706
 23.3236  11943.2  109.138
 23.5216  11959.7  108.856
 23.7196  12231.6  110.265
 23.9176  11961.4  108.587
 24.1156  11624.9  107.483
 24.3136  11596.2  108.158
 24.5116  11752.3  108.422
 24.7096  11394.7  106.569
 24.9076  11230.7  105.836
 25.1056  10941.7  104.648
 25.3036  10614.6  102.844
 25.5016  10701.6  103.3
 25.6996  10600.4  102.4
 25.8976  10921.5  104.379
 26.0956  10604.2  102.849
 26.2936  10526  102.14
 26.4916  10669.1  102.691
 26.6896  10466.7  102.013
 26.8876  10196.3  100.562
 27.0856  9994.39  99.5583
 27.2836  9923.82  99.1489
 27.4816  9998.33  99.4536
 27.6796  9739.15  98.5164
 27.8776  10293.2  101.147
 28.0756  9729.31  98.6046
 28.2736  9801.3  98.5628
 28.4716  9467.29  96.9203
 28.6696  9477.75  96.8212
 28.8676  9481.18  97.1811
 29.0656  9271.5  96.078
 29.2636  9333.71  96.1308
 29.4616  8943.25  94.3273
 29.6596  9136.56  94.9197
 29.8576  8820.36  93.9214
 30.0556  9109.78  95.3135
 30.2536  8860.79  93.8185
 30.4516  9205.01  95.2741
 30.6496  9299.73  95.5135
 30.8476  9081.65  94.8238
 31.0456  9071.3  94.7423
 31.2436  9020.69  93.7547
 31.4416  8818.09  92.883
 31.6396  9262.93  95.2416
 31.8376  9185.96  94.3581
 32.0356  9002.47  93.9837
 32.2336  8825.86  92.483
 32.4316  8633.03  91.8435
 32.6296  8539.1  91.1071
 32.8276  8688.07  91.7624
 33.0256  8486.32  90.7495
 33.2236  8619.16  91.6069
 33.4216  8420.84  90.2323
 33.6196  8504.96  90.9799
 33.8176  8421.6  90.6904
 34.0156  8369.55  90.0473
 34.2136  8532.87  90.9425
 34.4116  8165.42  89.1213
 34.6096  8254.05  89.4796
 34.8076  8150.89  89.3348
 35.0056  8168.85  89.1085
 35.2036  8401.52  90.6004
 35.4016  8051.49  88.5936
 35.5996  8017.63  88.4525
 35.7976  8044.02  88.8458
 35.9956  8183.68  89.2744
 36.1936  8171.28  89.0541
 36.3916  8004.97  88.3472
 36.5896  8217.03  90.9692
 36.7876  7828.71  87.7198
 36.9856  7636.32  86.6593
 37.1836  7797.43  86.6989
 37.3816  7611.57  85.997
 37.5796  7739.84  88.434
 37.7776  7827.45  87.3392
 37.9756  7770.72  86.9109
 38.1736  7993.3  88.3261
 38.3716  7870.77  87.9086
 38.5696  7662.24  87.1014
 38.7676  7658.01  86.6188
 38.9656  7692.32  86.4506
 39.1636  7711.97  86.7964
 39.3616  7651.02  86.4169
 39.5596  7493.02  86.3246
 39.7576  7614.39  86.4168
 39.9556  7557.07  85.7396
 40.1536  7694.98  86.7048
 40.3516  7656.93  86.5056
 40.5496  7707.72  86.8354
 40.7476  7718.6  87.1069
 40.9456  7728.51  86.9243
 41.1436  7768.47  86.886
 41.3416  7539.41  85.9037
 41.5396  7580.6  85.9579
 41.7376  7617.88  86.4154
 41.9356  7552.66  85.909
 42.1336  7659.79  86.6671
 42.3316  7437.37  85.5845
 42.5296  7615.73  86.1382
 42.7276  7693.54  86.8102
 42.9256  7513.89  85.6742
 43.1236  7425.29  85.2623
 43.3216  7585.85  86.0387
 43.5196  7485.97  85.4284
 43.7176  7416.6  85.4185
 43.9156  7181.64  83.9618
 44.1136  7244.44  83.8902
 44.3116  7229.98  83.8086
 44.5096  7144.37  83.6234
 44.7076  7443.15  85.2827
 44.9056  7479.65  85.3767
 45.1036  7394.04  84.5139
 45.3016  7321.55  84.5806
 45.4996  7330.46  84.5849
 45.6976  7181.58  83.8835
 45.8956  7220.02  83.9557
 46.0936  7408.86  84.8051
 46.2916  7221.11  83.9377
 46.4896  7435.37  85.1955
 46.6876  7091.43  83.9119
 46.8856  7287.42  84.3066
 47.0836  7189.16  84.0021
 47.2816  7082.26  83.2481
 47.4796  7151.35  83.7552
 47.6776  7079.74  84.269
 47.8756  7169.02  83.9733
 48.0736  7134.72  84.2291
 48.2716  7071.76  83.6718
 48.4696  7086.76  83.3473
 48.6676  7140.27  84.2627
 48.8656  7182.24  84.235
 49.0636  7313.92  84.9638
 49.2616  7079.5  83.6149
 49.4596  7125.39  83.4396
 49.6576  7028.24  83.1043
 49.8556  7030.08  83.1336
 50.0536  7061.39  83.7649
 50.2516  7058.26  83.8559
 50.4496  7084.49  83.6892
 50.6476  7028.87  83.0373
 50.8456  7084.15  83.4551
 51.0436  6770.67  82.0122
 51.2416  6802.62  81.8768
 51.4396  6672.81  81.4951
 51.6376  6757.82  81.8395
 51.8356  6710.3  81.1766
 52.0336  6769.93  82.0437
 52.2316  6861.79  82.9755
 52.4296  6715.5  81.775
 52.6276  6640.98  81.4278
 52.8256  6723.96  81.5074
 53.0236  6785.89  82.53
 53.2216  6644.36  81.6765
 53.4196  6798.41  82.5534
 53.6176  6694.19  82.4203
 53.8156  6789.21  82.6713
 54.0136  6400.6  80.413
 54.2116  6489.2  80.6175
 54.4096  6311.66  79.5567
 54.6076  6398.15  80.4632
 54.8056  6321.89  79.7586
 55.0036  6439.16  80.7595
 55.2016  6274.95  79.3042
 55.3996  6147.2  78.5583
 55.5976  6299.02  79.7137
 55.7956  6207.16  78.9522
 55.9936  6234  79.2494
 56.1916  6125.46  78.5821
 56.3896  6071.43  78.2228
 56.5876  6036.81  78.5297
 56.7856  6006.17  77.8462
 56.9836  6162.6  78.6235
 57.1816  6259.29  79.6163
 57.3796  6021.16  77.9093
 57.5776  6045.96  77.9546
 57.7756  5926.57  77.8365
 57.9736  6026.77  78.1555
 58.1716  5880.76  77.4581
 58.3696  5774.39  76.5176
 58.5676  5849.12  76.4883
 58.7656  5714.89  76.262
 58.9636  5734.56  76.4216
 59.1616  5728.66  76.5102
 59.3596  5760.4  75.9836
 59.5576  5734.76  75.8699
 59.7556  5664.81  75.8106
 59.9536  5879.74  77.1356
 60.1516  5656.65  76.4793
 60.1996  0.0000000E+00  0.0000000E+00