Folder: echemistpy/docs/examples/opeando_xrd/IS17_D/Data/IS17_D (part 21)

File: 17_Da_f00059.xye
# /beamlines/bl04/projects/cycle2025-II/20250340211-lsimonelli/DATA/IS17_D/17_Da_f00059.xye : mythproc.py merge -s 0.006 -l 0.5 -f /beamlines/bl04/inhouse/ff/FlatField/ff_20Nov2024rod8mm60s_17keV.raw -b True -c true -o xye /beamlines/bl04/projects/cycle2025-II/20250340211-lsimonelli/DATA/IS17_D/17_Da_00059.dat
# IsMon = [6789390, 6795215, 6792044]  IsPos = [-1.4999, -2.4884, -3.4988]
# Wave = 0.4962  CalPath /beamlines/bl04/projects/cycle2025-II/20250340211-lsimonelli/DATA/Align/Si_Pos1_25keV_f00001.cal
# Date = 2025-09-24_09:58:17 Dt = 4.8000  Bin = 0.0060  <imon> = 6792216 +/- 2381 (Min/Max) 6789390 / 6795215
# icurr 252.9952  mocoIn 1.7258E-05  mocoOut 0.8093  i15 7.11176e+06  imon 6.79222e+06  i7 6.6667  iEMpd_timer 4.8000  iEMpd_1 3.5784E-08  iEMpd_2 7.8166E-08  iEMpd_3 1.5922E-08  iEMpd_4 4.8056E-08  iEMhp_timer 4.8000  iEMhp_1 4.9425E-06  iEMhp_2 -2.6103E-08  iEMhp_3 -2.4108E-08  iEMhp_4 -2.1671E-08
#      9776
 1.7416  71039.8  266.665
 1.9396  46599.6  216.251
 2.1376  33015.8  182.023
 2.3356  29625.8  172.063
 2.5336  27428.3  166.141
 2.7316  25742.9  161.027
 2.9296  24774.3  158.142
 3.1276  24270.3  156.078
 3.3256  23839.1  154.335
 3.5236  25959.4  160.852
 3.7216  23627.5  154.716
 3.9196  23158  152.398
 4.1176  22970.5  151.557
 4.3156  24314.4  156.088
 4.5136  26684.4  162.482
 4.7116  27727.4  166.783
 4.9096  27185.5  164.58
 5.1076  26750.5  163.841
 5.3056  27147.2  164.772
 5.5036  27141  164.64
 5.7016  27296.5  165.086
 5.8996  28003.6  166.422
 6.0976  28649.9  169.783
 6.2956  29310.5  171.046
 6.4936  29940.6  172.069
 6.6916  30208.9  173.842
 6.8896  31074.4  176.173
 7.0876  32244.6  180.195
 7.2856  32077.3  178.772
 7.4836  32473.6  179.205
 7.6816  33359.6  182.174
 7.8796  34882.8  186.256
 8.0776  36434.7  191.354
 8.2756  38462.4  195.192
 8.4736  38775  195.788
 8.6716  38445.2  195.586
 8.8696  38112.7  195.265
 9.0676  37253.8  192.411
 9.2656  36246.9  190.482
 9.4636  36221.9  188.799
 9.6616  35423.4  187.497
 9.8596  33929.9  182.94
 10.0576  31903.6  178.054
 10.2556  31215.1  176.571
 10.4536  29935.8  172.519
 10.6516  29161.7  170.472
 10.8496  28386.9  167.61
 11.0476  27593.1  165.267
 11.2456  26868.4  163.607
 11.4436  27229.7  163.873
 11.6416  26685.6  162.585
 11.8396  25208.2  158.237
 12.0376  25264.9  158.041
 12.2356  24541.6  156.157
 12.4336  24410.8  155.29
 12.6316  24409.2  155.565
 12.8296  24597.1  155.792
 13.0276  25284.1  158.127
 13.2256  25207.5  158.269
 13.4236  25126.8  157.778
 13.6216  24966  157.295
 13.8196  25085.2  157.428
 14.0176  24411.3  155.583
 14.2156  23972.7  153.214
 14.4136  22874.3  151.053
 14.6116  22538.7  149.141
 14.8096  21869  146.895
 15.0076  20565.9  146.272
 15.2056  20370.6  141.357
 15.4036  19242.5  138.226
 15.6016  19176.6  137.05
 15.7996  18522.1  134.979
 15.9976  17824  135.407
 16.1956  17260.5  131.105
 16.3936  17033.9  129.408
 16.5916  16510.7  128.04
 16.7896  16669.3  128.712
 16.9876  16618.7  129.983
 17.1856  16277.3  126.982
 17.3836  15812.1  125.065
 17.5816  15430.8  124.04
 17.7796  15432.8  123.974
 17.9776  15036.1  123.175
 18.1756  15172.7  122.417
 18.3736  14947.7  122.022
 18.5716  14630.6  120.478
 18.7696  14862.6  120.983
 18.9676  14489.6  119.272
 19.1656  14348.7  119.258
 19.3636  14330.5  119.364
 19.5616  14183.1  118.933
 19.7596  14386.2  119.175
 19.9576  14986.7  121.7
 20.1556  14492.7  120.202
 20.3536  14019.7  117.595
 20.5516  13776.5  117.026
 20.7496  13539.9  115.957
 20.9476  13444.8  115.3
 21.1456  13387.3  115.373
 21.3436  13308.6  114.991
 21.5416  13103.9  114.102
 21.7396  13013.9  113.559
 21.9376  13040.3  113.442
 22.1356  12928.9  113.064
 22.3336  13040.3  113.847
 22.5316  12963.5  113.6
 22.7296  12917.7  112.751
 22.9276  13037.2  113.967
 23.1256  13111.3  113.763
 23.3236  13020.4  113.927
 23.5216  12863.6  112.915
 23.7196  12770.2  112.454
 23.9176  12596.2  111.436
 24.1156  12425.8  111.154
 24.3136  12189.2  110.875
 24.5116  12107.4  110.028
 24.7096  11834.6  108.597
 24.9076  11587.1  107.487
 25.1056  11389.2  107.027
 25.3036  11358.2  106.376
 25.5016  11281  106.056
 25.6996  11282.4  105.641
 25.8976  11207.8  105.736
 26.0956  11154.3  105.5
 26.2936  11132.2  105.033
 26.4916  11364.9  106.012
 26.6896  10917.9  104.202
 26.8876  10833.1  103.651
 27.0856  10823.5  103.656
 27.2836  10647.8  102.698
 27.4816  10552.7  102.17
 27.6796  10444.7  102.029
 27.8776  10309.6  101.232
 28.0756  10362.2  101.769
 28.2736  10206  100.582
 28.4716  10144.5  100.33
 28.6696  10147.5  100.189
 28.8676  9983.21  99.7193
 29.0656  9866.39  99.1188
 29.2636  9922.49  99.1905
 29.4616  9792.11  98.7095
 29.6596  9856.84  98.5999
 29.8576  9710.38  98.5556
 30.0556  9754.52  98.6615
 30.2536  9701.2  98.1757
 30.4516  9693.62  97.8093
 30.6496  9772.62  97.9314
 30.8476  9528.49  97.1429
 31.0456  9489.8  96.9113
 31.2436  9581.47  96.6369
 31.4416  9380  95.7796
 31.6396  9405.92  95.9592
 31.8376  9364.37  95.2904
 32.0356  9285.7  95.4476
 32.2336  9223.85  94.5306
 32.4316  9222.83  94.9224
 32.6296  9188.75  94.5844
 32.8276  9152.73  94.1755
 33.0256  9068.99  93.8214
 33.2236  9055.15  93.9003
 33.4216  9053.78  93.5794
 33.6196  9086.57  94.0404
 33.8176  9014.18  93.8312
 34.0156  8948.22  93.1056
 34.2136  8822.88  92.4895
 34.4116  8796.29  92.4974
 34.6096  8802.43  92.4137
 34.8076  8741.22  92.4995
 35.0056  8782.38  92.4067
 35.2036  8708.78  92.2331
 35.4016  8686.8  92.0342
 35.5996  8685.94  92.0641
 35.7976  8542.06  91.5734
 35.9956  8637.9  91.7306
 36.1936  8511.92  90.9288
 36.3916  8507.18  91.0778
 36.5896  8326.14  91.0792
 36.7876  8491.23  91.3648
 36.9856  8386.26  90.8294
 37.1836  8458.23  90.3056
 37.3816  8442.06  90.5938
 37.5796  8318.82  91.6778
 37.7776  8154.82  89.1438
 37.9756  8191.63  89.2311
 38.1736  8302.37  90.03
 38.3716  8272.39  90.1445
 38.5696  8104.55  89.5974
 38.7676  8035.38  88.7134
 38.9656  8045.37  88.4014
 39.1636  8072.69  88.8201
 39.3616  8106.64  88.9239
 39.5596  7892.66  88.5963
 39.7576  7965.5  88.3788
 39.9556  8038.86  88.4197
 40.1536  8147.62  89.2306
 40.3516  8137.49  89.18
 40.5496  8180.68  89.673
 40.7476  8187.36  89.7219
 40.9456  8215.04  89.6228
 41.1436  8148.37  88.9776
 41.3416  8097.42  89.0318
 41.5396  8070.23  88.6916
 41.7376  8059.49  88.9016
 41.9356  7911.61  87.9385
 42.1336  8075.98  89.0016
 42.3316  8049.36  89.0489
 42.5296  7997.57  88.2758
 42.7276  8037.7  88.7412
 42.9256  8002.56  88.4156
 43.1236  7745.72  87.0919
 43.3216  7929.7  87.8734
 43.5196  7879.86  87.6532
 43.7176  7856.1  87.9211
 43.9156  7746.69  87.2072
 44.1136  7736.22  86.6999
 44.3116  7766.67  86.886
 44.5096  7668.79  86.6423
 44.7076  7699.01  86.7456
 44.9056  7582.02  85.9634
 45.1036  7547.86  85.4002
 45.3016  7362.17  84.839
 45.4996  7377.74  84.8686
 45.6976  7431.65  85.3512
 45.8956  7481.9  85.4481
 46.0936  7558.59  85.8933
 46.2916  7400.56  84.9666
 46.4896  7472.19  85.4094
 46.6876  7364.15  85.5059
 46.8856  7315.93  84.482
 47.0836  7291.94  84.5957
 47.2816  7303.97  84.5351
 47.4796  7221.66  84.1717
 47.6776  7227.08  85.1502
 47.8756  7161.24  83.9322
 48.0736  7211.46  84.6932
 48.2716  7027.86  83.4118
 48.4696  7151.13  83.7393
 48.6676  7152.22  84.3363
 48.8656  7182.79  84.2282
 49.0636  7159.64  84.0476
 49.2616  7005.32  83.1756
 49.4596  7098.92  83.2965
 49.6576  7047.2  83.2175
 49.8556  6947.86  82.646
 50.0536  7015.17  83.4952
 50.2516  6965.29  83.3354
 50.4496  6914.56  82.6741
 50.6476  6828.06  81.8483
 50.8456  6944.45  82.6308
 51.0436  6794.55  82.1651
 51.2416  6729.33  81.443
 51.4396  6567.44  80.8534
 51.6376  6616.7  80.9759
 51.8356  6708.37  81.1711
 52.0336  6569.08  80.8444
 52.2316  6521.63  80.8999
 52.4296  6672.68  81.5086
 52.6276  6572.26  81.0251
 52.8256  6636.61  80.9684
 53.0236  6454.92  80.4865
 53.2216  6409.11  80.237
 53.4196  6388.73  80.0302
 53.6176  6418.58  80.6961
 53.8156  6443.81  80.522
 54.0136  6412.69  80.508
 54.2116  6318.74  79.5805
 54.4096  6434  80.3484
 54.6076  6345.17  80.145
 54.8056  6290.35  79.5848
 55.0036  6335.31  80.2551
 55.2016  6342.26  79.8504
 55.3996  6355.06  79.8992
 55.5976  6331.32  79.9367
 55.7956  6309.07  79.6163
 55.9936  6283.12  79.5874
 56.1916  6328.65  79.8945
 56.3896  6255.87  79.4198
 56.5876  6235.99  79.8468
 56.7856  6182.76  78.9936
 56.9836  6239.96  79.1434
 57.1816  6272.44  79.7274
 57.3796  6271.66  79.5142
 57.5776  6287.15  79.5482
 57.7756  6187.69  79.5504
 57.9736  6217.15  79.4154
 58.1716  6282.36  80.0732
 58.3696  6183.49  79.1762
 58.5676  6298.15  79.3722
 58.7656  6229.91  79.6223
 58.9636  6244.44  79.7551
 59.1616  6269.69  80.0362
 59.3596  6247.45  79.1655
 59.5576  6362.92  79.952
 59.7556  6239.98  79.601
 59.9536  6112.96  78.6849
 60.1516  6294.52  80.7114
 60.1996  0.0000000E+00  0.0000000E+00

File: 17_Da_f00060.xye
# /beamlines/bl04/projects/cycle2025-II/20250340211-lsimonelli/DATA/IS17_D/17_Da_f00060.xye : mythproc.py merge -s 0.006 -l 0.5 -f /beamlines/bl04/inhouse/ff/FlatField/ff_20Nov2024rod8mm60s_17keV.raw -b True -c true -o xye /beamlines/bl04/projects/cycle2025-II/20250340211-lsimonelli/DATA/IS17_D/17_Da_00060.dat
# IsMon = [6744056, 6753864, 6751579]  IsPos = [-1.4999, -2.4885, -3.4988]
# Wave = 0.4962  CalPath /beamlines/bl04/projects/cycle2025-II/20250340211-lsimonelli/DATA/Align/Si_Pos1_25keV_f00001.cal
# Date = 2025-09-24_10:14:59 Dt = 4.8000  Bin = 0.0060  <imon> = 6749833 +/- 4190 (Min/Max) 6744056 / 6753864
# icurr 249.0431  mocoIn 1.7004E-05  mocoOut 0.7981  i15 7.07109e+06  imon 6.74983e+06  i7 5.6667  iEMpd_timer 4.8000  iEMpd_1 3.4782E-08  iEMpd_2 7.8978E-08  iEMpd_3 1.7216E-08  iEMpd_4 4.8106E-08  iEMhp_timer 4.8000  iEMhp_1 4.8681E-06  iEMhp_2 -2.5486E-08  iEMhp_3 -2.4172E-08  iEMhp_4 -2.1904E-08
#      9776
 1.7416  70064.8  264.887
 1.9396  45775.5  214.384
 2.1376  32514.4  180.675
 2.3356  29164.9  170.757
 2.5336  26841.4  164.391
 2.7316  25346.2  159.802
 2.9296  24426.2  157.038
 3.1276  23824.9  154.657
 3.3256  23408.5  152.938
 3.5236  25226.1  158.737
 3.7216  23119.3  153.041
 3.9196  22703.9  150.896
 4.1176  22605  150.357
 4.3156  23982.3  155.011
 4.5136  26205.4  161.015
 4.7116  27414.1  165.838
 4.9096  26563.2  162.678
 5.1076  26363.3  162.66
 5.3056  26674.2  163.328
 5.5036  26335  162.269
 5.7016  26885.5  163.839
 5.8996  27615.1  165.259
 6.0976  28265.1  168.647
 6.2956  28654.2  169.113
 6.4936  29524.9  170.865
 6.6916  29872.2  172.867
 6.8896  30615.3  174.868
 7.0876  31703.3  178.675
 7.2856  31491.1  177.132
 7.4836  32014.6  177.936
 7.6816  32999.1  181.186
 7.8796  34207.1  184.429
 8.0776  35685.5  189.352
 8.2756  37665.4  193.139
 8.4736  38188.2  194.274
 8.6716  37630.5  193.487
 8.8696  37936.9  194.819
 9.0676  36819.3  191.291
 9.2656  35764.3  189.212
 9.4636  35465.3  186.806
 9.6616  34448.1  184.891
 9.8596  33299.1  181.24
 10.0576  31561.4  177.1
 10.2556  30222.9  173.753
 10.4536  29574.5  171.487
 10.6516  29018.7  170.064
 10.8496  28046.8  166.596
 11.0476  27178.1  163.959
 11.2456  26513.4  162.516
 11.4436  27095.6  163.453
 11.6416  26222.7  161.172
 11.8396  24830.2  157.053
 12.0376  24696.9  156.222
 12.2356  24115.8  154.831
 12.4336  23987.8  153.939
 12.6316  23990.5  154.23
 12.8296  24281.4  154.788
 13.0276  24828.5  156.695
 13.2256  24718.9  156.723
 13.4236  24653  156.283
 13.6216  24396.1  155.497
 13.8196  24515.7  155.629
 14.0176  24183.5  154.845
 14.2156  23729.8  152.436
 14.4136  22535.5  149.932
 14.6116  22184.8  147.964
 14.8096  21550.2  145.809
 15.0076  20415.1  145.764
 15.2056  19960.4  139.912
 15.4036  18834.4  136.733
 15.6016  18633.8  135.084
 15.7996  18216.3  133.844
 15.9976  17419.6  133.854
 16.1956  17055.8  130.331
 16.3936  16773.8  128.422
 16.5916  16449.7  127.806
 16.7896  16586.3  128.387
 16.9876  16400  129.133
 17.1856  16169.2  126.561
 17.3836  15500.1  123.839
 17.5816  15095.1  122.691
 17.7796  14980.9  122.158
 17.9776  14816.9  122.277
 18.1756  15085.2  122.069
 18.3736  14931.2  121.952
 18.5716  14505.7  119.96
 18.7696  14506.1  119.534
 18.9676  14265.6  118.352
 19.1656  14088.6  118.157
 19.3636  14094  118.378
 19.5616  13944.7  117.932
 19.7596  14229.9  118.543
 19.9576  14756.2  120.759
 20.1556  14136.6  118.711
 20.3536  13796.9  116.661
 20.5516  13496.3  115.834
 20.7496  13228.6  114.614
 20.9476  13161.9  114.089
 21.1456  13222  114.656
 21.3436  12990.6  113.61
 21.5416  12956.9  113.47
 21.7396  12700.9  112.177
 21.9376  12768.4  112.248
 22.1356  12835.8  112.664
 22.3336  12850.3  112.988
 22.5316  12725  112.543
 22.7296  12715.1  111.847
 22.9276  12752  112.697
 23.1256  12892.9  112.798
 23.3236  12541  111.836
 23.5216  12580.1  111.67
 23.7196  12465.3  111.105
 23.9176  12459.7  110.845
 24.1156  12313.4  110.654
 24.3136  11830.9  109.244
 24.5116  11855.7  108.883
 24.7096  11657.2  107.787
 24.9076  11449.6  106.859
 25.1056  11383  106.712
 25.3036  11331.9  106.257
 25.5016  11195.4  105.656
 25.6996  11058.2  104.587
 25.8976  11057.6  105.03
 26.0956  11031.2  104.912
 26.2936  11050.3  104.643
 26.4916  11044.3  104.504
 26.6896  10676.4  103.044
 26.8876  10652.4  102.789
 27.0856  10640  102.72
 27.2836  10567.5  102.316
 27.4816  10323.4  101.054
 27.6796  10358.4  101.607
 27.8776  10162.4  100.512
 28.0756  10239  101.158
 28.2736  10069.4  99.9085
 28.4716  9983.68  99.523
 28.6696  9984.6  99.383
 28.8676  9925.09  99.4365
 29.0656  9697.72  98.2667
 29.2636  9770.59  98.3528
 29.4616  9691.23  98.1922
 29.6596  9710.26  97.8534
 29.8576  9518.47  97.5664
 30.0556  9645.05  98.0915
 30.2536  9740.13  98.362
 30.4516  9484.86  96.7554
 30.6496  9660.26  97.3706
 30.8476  9409.03  96.5374
 31.0456  9319.44  96.0433
 31.2436  9366.26  95.5528
 31.4416  9102.64  94.36
 31.6396  9268.27  95.2593
 31.8376  9203.86  94.481
 32.0356  9168.16  94.8575
 32.2336  9061.67  93.7064
 32.4316  9037.02  93.962
 32.6296  8978.08  93.431
 32.8276  9056.47  93.6806
 33.0256  8943.89  93.1726
 33.2236  8931.96  93.2659
 33.4216  8938.12  92.9764
 33.6196  8958.82  93.3756
 33.8176  8915.54  93.3211
 34.0156  8772.44  92.1818
 34.2136  8800.71  92.378
 34.4116  8702.46  92.001
 34.6096  8718.68  91.9679
 34.8076  8645.78  91.9953
 35.0056  8623.64  91.5678
 35.2036  8533.46  91.2971
 35.4016  8585.48  91.4851
 35.5996  8435.88  90.7247
 35.7976  8370.35  90.65
 35.9956  8477.2  90.8782
 36.1936  8444.82  90.5632
 36.3916  8326.8  90.1112
 36.5896  8314.91  91.4867
 36.7876  8280.5  90.2171
 36.9856  8167.13  89.6247
 37.1836  8243.19  89.1354
 37.3816  8305.15  89.8425
 37.5796  8111.47  90.526
 37.7776  8083.28  88.7607
 37.9756  8089.71  88.679
 38.1736  8293.12  89.9811
 38.3716  8072.37  89.0501
 38.5696  7935.6  88.6557
 38.7676  7896.98  87.9517
 38.9656  7880.88  87.4977
 39.1636  8037.14  88.5933
 39.3616  7937.39  87.9954
 39.5596  7812.2  88.145
 39.7576  7729.03  87.055
 39.9556  8010.01  88.2722
 40.1536  7979.58  88.301
 40.3516  8043.77  88.6602
 40.5496  8060.53  88.8091
 40.7476  7961.63  88.4753
 40.9456  8021.75  88.5569
 41.1436  8045.54  88.421
 41.3416  8017.96  88.5881
 41.5396  7868.64  87.5804
 41.7376  7925.04  88.1543
 41.9356  7850.31  87.5971
 42.1336  7894.17  87.9959
 42.3316  7840.76  87.8837
 42.5296  7895.26  87.7112
 42.7276  7995.33  88.5077
 42.9256  7834.69  87.4814
 43.1236  7764.09  87.1958
 43.3216  7817.77  87.3503
 43.5196  7726  86.7975
 43.7176  7716.27  87.1365
 43.9156  7745.03  87.1885
 44.1136  7601.68  85.9331
 44.3116  7649.76  86.2213
 44.5096  7514.13  85.7583
 44.7076  7526.89  85.761
 44.9056  7553.67  85.809
 45.1036  7466.93  84.9412
 45.3016  7468.69  85.4538
 45.4996  7324.42  84.5638
 45.6976  7333.27  84.7842
 45.8956  7438.71  85.2063
 46.0936  7429.31  85.1679
 46.2916  7413.77  85.0486
 46.4896  7389.32  84.9407
 46.6876  7199.58  84.5488
 46.8856  7270.73  84.2095
 47.0836  7139.04  83.7086
 47.2816  7104.97  83.3705
 47.4796  7229.4  84.214
 47.6776  7034.39  84.0096
 47.8756  7069.46  83.3955
 48.0736  7076.62  83.8962
 48.2716  6883.11  82.5501
 48.4696  7137.99  83.6661
 48.6676  7044.82  83.6921
 48.8656  6999.24  83.1546
 49.0636  7014.67  83.2068
 49.2616  6870.59  82.368
 49.4596  6905.05  82.153
 49.6576  6919.07  82.4557
 49.8556  6831.06  81.9482
 50.0536  6852.18  82.5193
 50.2516  6892.93  82.8705
 50.4496  6739.16  81.6169
 50.6476  6763.03  81.4535
 50.8456  6723.18  81.307
 51.0436  6713.4  81.6602
 51.2416  6685.42  81.1759
 51.4396  6601.18  81.0434
 51.6376  6589.03  80.7968
 51.8356  6529.86  80.0717
 52.0336  6383.18  79.6935
 52.2316  6531.06  80.9618
 52.4296  6524.71  80.6075
 52.6276  6416.72  80.049
 52.8256  6532.07  80.3405
 53.0236  6378.8  80.016
 53.2216  6353.36  79.891
 53.4196  6323.22  79.625
 53.6176  6312.62  80.0321
 53.8156  6235.41  79.2193
 54.0136  6326.75  79.9643
 54.2116  6295.95  79.4422
 54.4096  6299.17  79.4989
 54.6076  6217.97  79.3373
 54.8056  6325.9  79.8091
 55.0036  6248.19  79.7106
 55.2016  6226.5  79.1271
 55.3996  6207.28  78.9628
 55.5976  6239.75  79.3625
 55.7956  6273.21  79.3817
 55.9936  6168.75  78.8623
 56.1916  6323.58  79.8589
 56.3896  6251.93  79.3927
 56.5876  6150.8  79.3007
 56.7856  6198.12  79.088
 56.9836  6158.99  78.6295
 57.1816  6149.55  78.9468
 57.3796  6172.43  78.8812
 57.5776  6131.96  78.5565
 57.7756  6106.11  79.0235
 57.9736  6059.81  78.4038
 58.1716  6219.55  79.6675
 58.3696  6115.79  78.7271
 58.5676  6210.45  78.8116
 58.7656  6132.38  78.9871
 58.9636  6191.91  79.4085
 59.1616  6200.98  79.5943
 59.3596  6141.64  78.4813
 59.5576  6173.03  78.7388
 59.7556  6229.35  79.5219
 59.9536  6204.01  79.2575
 60.1516  6090.83  79.3835
 60.1996  0.0000000E+00  0.0000000E+00