Folder: echemistpy/docs/examples/opeando_xrd/IS17_D/Data/IS17_D (part 16)

File: 17_Da_f00047.xye
# /beamlines/bl04/projects/cycle2025-II/20250340211-lsimonelli/DATA/IS17_D/17_Da_f00047.xye : mythproc.py merge -s 0.006 -l 0.5 -f /beamlines/bl04/inhouse/ff/FlatField/ff_20Nov2024rod8mm60s_17keV.raw -b True -c true -o xye /beamlines/bl04/projects/cycle2025-II/20250340211-lsimonelli/DATA/IS17_D/17_Da_00047.dat
# IsMon = [6788714, 6784641, 6789868]  IsPos = [-1.4999, -2.4885, -3.4988]
# Wave = 0.4962  CalPath /beamlines/bl04/projects/cycle2025-II/20250340211-lsimonelli/DATA/Align/Si_Pos1_25keV_f00001.cal
# Date = 2025-09-24_06:39:47 Dt = 4.8000  Bin = 0.0060  <imon> = 6787741 +/- 2242 (Min/Max) 6784641 / 6789868
# icurr 252.6695  mocoIn 1.7238E-05  mocoOut 0.8087  i15 7.1067e+06  imon 6.78774e+06  i7 4.6667  iEMpd_timer 4.8000  iEMpd_1 3.4878E-08  iEMpd_2 7.8081E-08  iEMpd_3 1.6519E-08  iEMpd_4 4.8251E-08  iEMhp_timer 4.8000  iEMhp_1 4.9365E-06  iEMhp_2 -2.6141E-08  iEMhp_3 -2.4154E-08  iEMhp_4 -2.1627E-08
#      9776
 1.7416  71521.7  267.493
 1.9396  47844.9  219.065
 2.1376  34444.9  185.868
 2.3356  30566.1  174.723
 2.5336  28958.5  170.665
 2.7316  27327.6  165.926
 2.9296  26155.8  162.503
 3.1276  25336.2  159.458
 3.3256  25038  158.2
 3.5236  26836.1  163.725
 3.7216  24455.2  157.403
 3.9196  23664.4  154.059
 4.1176  23611.3  153.638
 4.3156  24996.7  158.258
 4.5136  27157.3  163.935
 4.7116  28272.2  168.414
 4.9096  27600.9  165.828
 5.1076  27282.6  165.449
 5.3056  27452  165.693
 5.5036  27186.4  164.869
 5.7016  27698.7  166.298
 5.8996  28262.1  167.179
 6.0976  28958.9  170.685
 6.2956  29588.9  171.867
 6.4936  30205.5  172.828
 6.6916  30855.9  175.693
 6.8896  31606.4  177.668
 7.0876  32638.6  181.292
 7.2856  32460.5  179.835
 7.4836  32981.9  180.603
 7.6816  33770.2  183.29
 7.8796  34891.3  186.309
 8.0776  36634.1  191.903
 8.2756  38497.4  195.289
 8.4736  39291.9  197.116
 8.6716  38452.1  195.652
 8.8696  38301.7  195.708
 9.0676  37712.7  193.55
 9.2656  36557.3  191.26
 9.4636  36078.7  188.39
 9.6616  35098.5  186.595
 9.8596  33981.2  183.092
 10.0576  32362.7  179.366
 10.2556  31137.9  176.37
 10.4536  29641.4  171.683
 10.6516  28717.1  169.177
 10.8496  27971.1  166.364
 11.0476  27213.8  164.083
 11.2456  26629.6  162.893
 11.4436  26560.7  161.845
 11.6416  27991.6  166.521
 11.8396  25706.4  159.777
 12.0376  25444.9  158.585
 12.2356  24966.6  157.541
 12.4336  24866.3  156.74
 12.6316  24598.1  156.153
 12.8296  24694.5  156.099
 13.0276  25239.7  157.999
 13.2256  25428.9  158.963
 13.4236  25353.8  158.49
 13.6216  25150.9  157.867
 13.8196  25293.1  158.078
 14.0176  24934.4  157.251
 14.2156  24161.3  153.817
 14.4136  23233.3  152.235
 14.6116  22748.1  149.832
 14.8096  22247.8  148.156
 15.0076  20959.6  147.679
 15.2056  20266.5  141.014
 15.4036  19618.8  139.581
 15.6016  19380  137.798
 15.7996  18701.8  135.643
 15.9976  18083.5  136.382
 16.1956  17535.8  132.117
 16.3936  16847.1  128.669
 16.5916  16793.3  129.104
 16.7896  16706.1  128.823
 16.9876  16526.7  129.618
 17.1856  16495.6  127.86
 17.3836  16151.1  126.41
 17.5816  15551.1  124.526
 17.7796  15243  123.225
 17.9776  14945.4  122.79
 18.1756  15008  121.766
 18.3736  14809.9  121.472
 18.5716  14559.8  120.183
 18.7696  14596.8  119.905
 18.9676  14314.5  118.543
 19.1656  14232.4  118.752
 19.3636  14251.1  119.058
 19.5616  14049  118.372
 19.7596  14112.6  118.04
 19.9576  14240.5  118.627
 20.1556  15153.5  122.919
 20.3536  14532.8  119.733
 20.5516  14030.4  118.098
 20.7496  13759.1  116.891
 20.9476  13438.6  115.27
 21.1456  13550.7  116.083
 21.3436  13410.5  115.436
 21.5416  13286.4  114.898
 21.7396  13099  113.927
 21.9376  13162.3  113.966
 22.1356  13165.2  114.111
 22.3336  13152.6  114.338
 22.5316  13097.2  114.193
 22.7296  13072.8  113.455
 22.9276  12932.9  113.528
 23.1256  12918.8  112.929
 23.3236  13078.8  114.174
 23.5216  12981.8  113.405
 23.7196  12749.8  112.329
 23.9176  12757.1  112.121
 24.1156  12550.4  111.685
 24.3136  12208.4  110.976
 24.5116  12188  110.403
 24.7096  11806.3  108.477
 24.9076  11578.7  107.445
 25.1056  11548.6  107.511
 25.3036  11524.6  107.165
 25.5016  11373.6  106.49
 25.6996  11388.7  106.143
 25.8976  11089.6  105.17
 26.0956  11213  105.776
 26.2936  11171  105.225
 26.4916  11288.3  105.656
 26.6896  10962.4  104.416
 26.8876  10921  104.066
 27.0856  10977.7  104.346
 27.2836  10691.2  102.914
 27.4816  10585.5  102.327
 27.6796  10440.3  102.009
 27.8776  10383.4  101.586
 28.0756  10520.1  102.544
 28.2736  10380  101.436
 28.4716  10172.9  100.47
 28.6696  10217.4  100.533
 28.8676  10061.9  100.114
 29.0656  9951.5  99.546
 29.2636  9947.96  99.2338
 29.4616  9765.36  98.5905
 29.6596  9956.33  99.11
 29.8576  9782.24  98.9338
 30.0556  9770.57  98.7465
 30.2536  9832.33  98.8524
 30.4516  9647.83  97.5566
 30.6496  9533.45  96.704
 30.8476  9635.2  97.6654
 31.0456  9590.42  97.3987
 31.2436  9536.74  96.3819
 31.4416  9391.51  95.8441
 31.6396  9523.99  96.5682
 31.8376  9523.38  96.1084
 32.0356  9380.3  95.9522
 32.2336  9247.34  94.6478
 32.4316  9251.68  95.0842
 32.6296  9254.85  94.8617
 32.8276  9277.15  94.8096
 33.0256  9228.37  94.6425
 33.2236  9009.45  93.66
 33.4216  9278.08  94.7195
 33.6196  9322.83  95.264
 33.8176  9151.95  94.5511
 34.0156  9058.5  93.6752
 34.2136  8959.75  93.1955
 34.4116  8928.56  93.2003
 34.6096  8844.35  92.6298
 34.8076  8797.45  92.8041
 35.0056  8665.16  91.7876
 35.2036  8884.06  93.1418
 35.4016  8836.48  92.8255
 35.5996  8765.36  92.482
 35.7976  8581.61  91.7826
 35.9956  8687.09  91.9949
 36.1936  8631.43  91.5634
 36.3916  8544.67  91.2772
 36.5896  8483.58  92.3971
 36.7876  8564.58  91.7737
 36.9856  8319.11  90.4781
 37.1836  8381.16  89.9064
 37.3816  8382.56  90.2784
 37.5796  8283.62  91.4768
 37.7776  8299.52  89.91
 37.9756  8300.52  89.7989
 38.1736  8401.65  90.5469
 38.3716  8176.14  89.5981
 38.5696  8229.54  90.2783
 38.7676  8050.3  88.8029
 38.9656  8156.3  89.0163
 39.1636  8127.15  89.0935
 39.3616  8167.78  89.2791
 39.5596  7959.86  88.9775
 39.7576  7965.07  88.3745
 39.9556  8018.98  88.314
 40.1536  8162.34  89.3002
 40.3516  8208.32  89.574
 40.5496  8106.3  89.0602
 40.7476  8147.72  89.5076
 40.9456  8242.15  89.7679
 41.1436  8177.65  89.1331
 41.3416  8166.05  89.4088
 41.5396  8055.71  88.6127
 41.7376  8124.74  89.2585
 41.9356  8033.85  88.6138
 42.1336  8051.62  88.8594
 42.3316  7955.83  88.5317
 42.5296  8126.58  88.9839
 42.7276  8120.1  89.1941
 42.9256  8006.03  88.433
 43.1236  8048.73  88.7774
 43.3216  7992.99  88.3206
 43.5196  7815.71  87.3025
 43.7176  7870.75  88.001
 43.9156  7807.16  87.563
 44.1136  7758.36  86.8362
 44.3116  7737.09  86.7139
 44.5096  7734.88  87.0278
 44.7076  7645.09  86.4494
 44.9056  7706.55  86.6518
 45.1036  7751.68  86.5273
 45.3016  7595.17  86.1514
 45.4996  7492.74  85.5081
 45.6976  7504.73  85.7535
 45.8956  7546.35  85.8217
 46.0936  7554.92  85.8716
 46.2916  7503.42  85.5607
 46.4896  7695.48  86.6754
 46.6876  7379.98  85.5994
 46.8856  7357.05  84.7165
 47.0836  7395.91  85.1911
 47.2816  7309.25  84.5761
 47.4796  7294.16  84.5862
 47.6776  7188.35  84.9139
 47.8756  7325.93  84.8976
 48.0736  7242.84  84.8658
 48.2716  7134.28  84.0414
 48.4696  7265.13  84.398
 48.6676  7115.3  84.1204
 48.8656  7214.15  84.4225
 49.0636  7132.62  83.8872
 49.2616  6948.61  82.8435
 49.4596  7029.33  82.8804
 49.6576  7090.98  83.4761
 49.8556  6941.8  82.6099
 50.0536  7067.63  83.8015
 50.2516  6951.02  83.2154
 50.4496  6935.88  82.8118
 50.6476  6856.52  82.0177
 50.8456  6933.6  82.5579
 51.0436  6852.24  82.5256
 51.2416  6795.96  81.8497
 51.4396  6714.58  81.7674
 51.6376  6717.59  81.609
 51.8356  6765.6  81.5316
 52.0336  6624.49  81.1666
 52.2316  6725.74  82.1414
 52.4296  6702.11  81.68
 52.6276  6678.52  81.6587
 52.8256  6646.06  81.0172
 53.0236  6546.67  81.0624
 53.2216  6568.32  81.2336
 53.4196  6413.8  80.1935
 53.6176  6473.1  81.0434
 53.8156  6467.43  80.6786
 54.0136  6426.59  80.5898
 54.2116  6502.12  80.7216
 54.4096  6465.59  80.5561
 54.6076  6470.49  80.9319
 54.8056  6421.32  80.4043
 55.0036  6349.2  80.3515
 55.2016  6405.71  80.2422
 55.3996  6429.07  80.3673
 55.5976  6329.37  79.9282
 55.7956  6446.1  80.4721
 55.9936  6350.63  80.0069
 56.1916  6268.55  79.5084
 56.3896  6354.33  80.048
 56.5876  6272.48  80.0852
 56.7856  6293.89  79.6828
 56.9836  6292.14  79.468
 57.1816  6279.93  79.7712
 57.3796  6256.18  79.4237
 57.5776  6377.69  80.1158
 57.7756  6225.81  79.7971
 57.9736  6355.63  80.2933
 58.1716  6355.36  80.5357
 58.3696  6206.32  79.3444
 58.5676  6346.83  79.692
 58.7656  6228.71  79.6348
 58.9636  6342.49  80.3913
 59.1616  6278.65  80.1026
 59.3596  6379.84  79.986
 59.5576  6487.15  80.715
 59.7556  6203.41  79.354
 59.9536  6361.6  80.2556
 60.1516  6173.57  79.9187
 60.1996  0.0000000E+00  0.0000000E+00

File: 17_Da_f00048.xye
# /beamlines/bl04/projects/cycle2025-II/20250340211-lsimonelli/DATA/IS17_D/17_Da_f00048.xye : mythproc.py merge -s 0.006 -l 0.5 -f /beamlines/bl04/inhouse/ff/FlatField/ff_20Nov2024rod8mm60s_17keV.raw -b True -c true -o xye /beamlines/bl04/projects/cycle2025-II/20250340211-lsimonelli/DATA/IS17_D/17_Da_00048.dat
# IsMon = [6745291, 6745748, 6746774]  IsPos = [-1.4999, -2.4885, -3.4988]
# Wave = 0.4962  CalPath /beamlines/bl04/projects/cycle2025-II/20250340211-lsimonelli/DATA/Align/Si_Pos1_25keV_f00001.cal
# Date = 2025-09-24_06:56:18 Dt = 4.8000  Bin = 0.0060  <imon> = 6745938 +/- 620 (Min/Max) 6745291 / 6746774
# icurr 248.7630  mocoIn 1.6982E-05  mocoOut 0.7961  i15 7.06412e+06  imon 6.74594e+06  i7 5.0000  iEMpd_timer 4.8000  iEMpd_1 3.5630E-08  iEMpd_2 7.8681E-08  iEMpd_3 1.7045E-08  iEMpd_4 4.8270E-08  iEMhp_timer 4.8000  iEMhp_1 4.8621E-06  iEMhp_2 -2.4093E-08  iEMhp_3 -2.2356E-08  iEMhp_4 -2.0630E-08
#      9776
 1.7416  70716.2  266.014
 1.9396  47185.3  217.574
 2.1376  33992.9  184.667
 2.3356  30275  173.91
 2.5336  28176.1  168.364
 2.7316  26805.8  164.33
 2.9296  25681.5  161.017
 3.1276  24851.2  157.934
 3.3256  24452.4  156.324
 3.5236  26292.7  162.054
 3.7216  24000.2  155.932
 3.9196  23418.2  153.252
 4.1176  23269.9  152.535
 4.3156  24341.4  156.17
 4.5136  26775.8  162.77
 4.7116  27776.7  166.929
 4.9096  27395.9  165.205
 5.1076  26672.1  163.595
 5.3056  27133.9  164.732
 5.5036  26548.9  162.922
 5.7016  27140.6  164.615
 5.8996  27646.7  165.355
 6.0976  28459.9  169.215
 6.2956  29082.3  170.385
 6.4936  29996.1  172.223
 6.6916  30306  174.122
 6.8896  31133.6  176.338
 7.0876  31952.7  179.376
 7.2856  32138.3  178.941
 7.4836  32457  179.158
 7.6816  33361.7  182.18
 7.8796  34484.3  185.206
 8.0776  36135.2  190.581
 8.2756  38072  194.204
 8.4736  38433.9  194.93
 8.6716  38035.8  194.568
 8.8696  37886.2  194.666
 9.0676  36713.7  190.985
 9.2656  36174.1  190.279
 9.4636  35582.1  187.116
 9.6616  34667.6  185.468
 9.8596  33308.4  181.264
 10.0576  31508.4  176.969
 10.2556  30428.7  174.34
 10.4536  29331.2  170.774
 10.6516  28344.9  168.063
 10.8496  27742.1  165.686
 11.0476  26853  162.988
 11.2456  26210.7  161.602
 11.4436  26099.6  160.434
 11.6416  27583.6  165.305
 11.8396  25262.6  158.399
 12.0376  25001.2  157.195
 12.2356  24622.4  156.452
 12.4336  24419.8  155.32
 12.6316  24035.2  154.362
 12.8296  24513.7  155.528
 13.0276  24986.7  157.202
 13.2256  25170.2  158.143
 13.4236  24965.3  157.268
 13.6216  24985.8  157.352
 13.8196  25039.4  157.282
 14.0176  24541.6  156.006
 14.2156  23921.6  153.057
 14.4136  22821.2  150.878
 14.6116  22579.7  149.276
 14.8096  21817.7  146.72
 15.0076  20719.7  146.835
 15.2056  20279.9  141.053
 15.4036  19198.4  138.063
 15.6016  18895.5  136.057
 15.7996  18395.7  134.523
 15.9976  17690.8  134.899
 16.1956  17284.4  131.18
 16.3936  16772.5  128.397
 16.5916  16556.4  128.201
 16.7896  16413.3  127.707
 16.9876  16369.7  129.007
 17.1856  16282.1  127.016
 17.3836  15754.8  124.842
 17.5816  15325.9  123.622
 17.7796  15053.1  122.444
 17.9776  14739.8  121.952
 18.1756  14770.6  120.788
 18.3736  14486.8  120.132
 18.5716  14545.2  120.121
 18.7696  14372.3  118.977
 18.9676  14104.2  117.673
 19.1656  14063.5  118.055
 19.3636  14122.2  118.514
 19.5616  14046.9  118.365
 19.7596  14016.7  117.636
 19.9576  14224.1  118.561
 20.1556  14915.6  121.947
 20.3536  14282.7  118.687
 20.5516  13770  117.002
 20.7496  13460.7  115.617
 20.9476  13262.3  114.509
 21.1456  13257.1  114.818
 21.3436  13099  114.083
 21.5416  13113  114.149
 21.7396  12887.1  113.003
 21.9376  12864.5  112.668
 22.1356  12997.5  113.378
 22.3336  12813.1  112.846
 22.5316  12782.6  112.816
 22.7296  12786.5  112.202
 22.9276  12656.9  112.295
 23.1256  12821.7  112.502
 23.3236  12976.8  113.75
 23.5216  12578.1  111.642
 23.7196  12562  111.521
 23.9176  12588.9  111.388
 24.1156  12466.9  111.324
 24.3136  11919.3  109.646
 24.5116  12029.6  109.676
 24.7096  11599.2  107.514
 24.9076  11527.8  107.208
 25.1056  11330.5  106.478
 25.3036  11221.9  105.746
 25.5016  11198.9  105.669
 25.6996  11222  105.363
 25.8976  11044.5  104.964
 26.0956  10947  104.515
 26.2936  11003.7  104.433
 26.4916  11039.3  104.476
 26.6896  10928.2  104.248
 26.8876  10661.8  102.825
 27.0856  10745.5  103.236
 27.2836  10523.6  102.101
 27.4816  10488.5  101.866
 27.6796  10327.9  101.46
 27.8776  10213.7  100.752
 28.0756  10245.2  101.197
 28.2736  10209.9  100.604
 28.4716  10006.9  99.6448
 28.6696  9975.09  99.3327
 28.8676  9941.18  99.514
 29.0656  9861.24  99.0916
 29.2636  9804.94  98.5188
 29.4616  9735.63  98.4356
 29.6596  9853.24  98.589
 29.8576  9624.39  98.1244
 30.0556  9678.88  98.2793
 30.2536  9783.11  98.598
 30.4516  9509.86  96.8679
 30.6496  9527.74  96.6851
 30.8476  9553.4  97.2593
 31.0456  9410.86  96.4919
 31.2436  9387.17  95.6349
 31.4416  9310.95  95.43
 31.6396  9363.22  95.7452
 31.8376  9270.74  94.8188
 32.0356  9142.21  94.7213
 32.2336  9134.92  94.0717
 32.4316  9092.04  94.2561
 32.6296  9135.93  94.2512
 32.8276  9028.59  93.5406
 33.0256  8997.83  93.448
 33.2236  8925.61  93.2252
 33.4216  9115.62  93.899
 33.6196  9086.26  94.0442
 33.8176  8982.94  93.6702
 34.0156  8907.73  92.891
 34.2136  8816.19  92.4504
 34.4116  8793.42  92.4846
 34.6096  8712.11  91.9345
 34.8076  8685.18  92.1997
 35.0056  8538.35  91.1128
 35.2036  8624.14  91.7756
 35.4016  8671.01  91.9515
 35.5996  8577.65  91.4901
 35.7976  8409.27  90.8675
 35.9956  8642.36  91.757
 36.1936  8393.05  90.2899
 36.3916  8366.34  90.3226
 36.5896  8304.48  91.4286
 36.7876  8360.03  90.6648
 36.9856  8319.28  90.4689
 37.1836  8292.71  89.4243
 37.3816  8418.5  90.469
 37.5796  8252.68  91.3126
 37.7776  8108.34  88.8857
 37.9756  8163.03  89.0608
 38.1736  8233.67  89.6418
 38.3716  8088.4  89.1267
 38.5696  8047.42  89.2828
 38.7676  7803.33  87.4261
 38.9656  8026.48  88.2995
 39.1636  7945.38  88.0822
 39.3616  7970.84  88.1897
 39.5596  7884.65  88.5559
 39.7576  8001.26  88.5806
 39.9556  7969.61  88.0438
 40.1536  8106.62  89.0009
 40.3516  8046.56  88.6853
 40.5496  8092.9  88.9872
 40.7476  8036.09  88.8899
 40.9456  8052.4  88.7304
 41.1436  8048.77  88.4287
 41.3416  7917.75  88.0394
 41.5396  7932.41  87.9342
 41.7376  8022.37  88.697
 41.9356  7860.83  87.6572
 42.1336  8019.3  88.6857
 42.3316  7921.98  88.3412
 42.5296  7888.71  87.673
 42.7276  7870.48  87.813
 42.9256  7932.63  88.0291
 43.1236  7901.85  87.9662
 43.3216  7878.43  87.6906
 43.5196  7802.84  87.2297
 43.7176  7680.3  86.9268
 43.9156  7684.39  86.8656
 44.1136  7636.96  86.1485
 44.3116  7680.04  86.4017
 44.5096  7648.25  86.5371
 44.7076  7581.57  86.0884
 44.9056  7563.29  85.853
 45.1036  7603.73  85.7067
 45.3016  7446.58  85.3156
 45.4996  7431.4  85.1638
 45.6976  7360.19  84.9329
 45.8956  7381.62  84.8771
 46.0936  7456.57  85.3097
 46.2916  7523.49  85.6728
 46.4896  7430.06  85.1598
 46.6876  7261.99  84.9081
 46.8856  7249.97  84.099
 47.0836  7272.1  84.478
 47.2816  7184.41  83.8469
 47.4796  7215.48  84.1314
 47.6776  7011.16  83.8666
 47.8756  7137.32  83.7819
 48.0736  7149.9  84.3227
 48.2716  7024.16  83.397
 48.4696  7139.63  83.6748
 48.6676  7072.5  83.8593
 48.8656  7144.03  84.0087
 49.0636  7098.36  83.6952
 49.2616  6910.5  82.6059
 49.4596  6916.77  82.2157
 49.6576  6967.4  82.7336
 49.8556  7023.19  83.0928
 50.0536  6898.03  82.7955
 50.2516  6838.18  82.5361
 50.4496  6850.03  82.293
 50.6476  6809.84  81.7377
 50.8456  6841.52  82.0177
 51.0436  6729.12  81.7763
 51.2416  6613.96  80.7469
 51.4396  6601.77  81.0728
 51.6376  6645.17  81.1642
 51.8356  6574.93  80.3675
 52.0336  6442.33  80.0536
 52.2316  6512.26  80.8308
 52.4296  6607.54  81.1127
 52.6276  6444.58  80.2163
 52.8256  6625.64  80.8889
 53.0236  6430.39  80.3363
 53.2216  6388.4  80.1075
 53.4196  6288.32  79.4026
 53.6176  6320.72  80.0799
 53.8156  6406.01  80.2936
 54.0136  6302.8  79.8162
 54.2116  6334.61  79.6773
 54.4096  6365.99  79.9239
 54.6076  6357.24  80.2203
 54.8056  6277.81  79.5047
 55.0036  6261.09  79.7949
 55.2016  6341.2  79.8407
 55.3996  6351.7  79.8809
 55.5976  6223.13  79.2473
 55.7956  6354.15  79.8926
 55.9936  6197.77  79.0482
 56.1916  6199.41  79.0635
 56.3896  6259.52  79.4474
 56.5876  6214.89  79.7154
 56.7856  6190.55  79.0381
 56.9836  6113.79  78.3362
 57.1816  6198.96  79.2545
 57.3796  6195.91  79.0383
 57.5776  6261.47  79.3796
 57.7756  6241.76  79.9021
 57.9736  6202.28  79.3111
 58.1716  6199.58  79.5457
 58.3696  6117.52  78.7655
 58.5676  6192.18  78.7149
 58.7656  6136.01  79.031
 58.9636  6189.62  79.4125
 59.1616  6162.65  79.356
 59.3596  6277.79  79.3492
 59.5576  6226.61  79.0851
 59.7556  6260.72  79.7272
 59.9536  6114.02  78.6859
 60.1516  6055.9  79.1609
 60.1996  0.0000000E+00  0.0000000E+00