Folder: echemistpy/docs/examples/opeando_xrd/IS17_D/Data/IS17_D (part 55)

File: 17_Da_f00139.xye
# /beamlines/bl04/projects/cycle2025-II/20250340211-lsimonelli/DATA/IS17_D/17_Da_f00139.xye : mythproc.py merge -s 0.006 -l 0.5 -f /beamlines/bl04/inhouse/ff/FlatField/ff_20Nov2024rod8mm60s_17keV.raw -b True -c true -o xye /beamlines/bl04/projects/cycle2025-II/20250340211-lsimonelli/DATA/IS17_D/17_Da_00139.dat
# IsMon = [6791507, 6787351, 6789875]  IsPos = [-1.4999, -2.4883, -3.4989]
# Wave = 0.4962  CalPath /beamlines/bl04/projects/cycle2025-II/20250340211-lsimonelli/DATA/Align/Si_Pos1_25keV_f00001.cal
# Date = 2025-09-25_08:19:30 Dt = 4.8000  Bin = 0.0060  <imon> = 6789578 +/- 1710 (Min/Max) 6787351 / 6791507
# icurr 252.7490  mocoIn 1.7243E-05  mocoOut 0.8090  i15 7.10481e+06  imon 6.78958e+06  i7 6.0000  iEMpd_timer 4.8000  iEMpd_1 3.6516E-08  iEMpd_2 7.8283E-08  iEMpd_3 1.7641E-08  iEMpd_4 4.7698E-08  iEMhp_timer 4.8000  iEMhp_1 4.9373E-06  iEMhp_2 -2.5376E-08  iEMhp_3 -2.3713E-08  iEMhp_4 -2.0489E-08
#      9776
 1.7416  70339.6  265.255
 1.9396  45722.9  214.132
 2.1376  32292  179.954
 2.3356  29088.6  170.436
 2.5336  27372.3  165.914
 2.7316  25180.4  159.266
 2.9296  24209.4  156.331
 3.1276  23690.6  154.188
 3.3256  23628.3  153.681
 3.5236  25310.4  158.849
 3.7216  23128.3  153.074
 3.9196  22999.6  151.879
 4.1176  22555.1  150.168
 4.3156  23921.8  154.813
 4.5136  26595.8  162.229
 4.7116  27517.3  166.148
 4.9096  26604.7  162.809
 5.1076  26289.1  162.407
 5.3056  26787.2  163.679
 5.5036  26629.2  163.093
 5.7016  26928.6  163.97
 5.8996  27889  166.078
 6.0976  28298.4  168.724
 6.2956  28944.1  169.986
 6.4936  29370.3  170.423
 6.6916  29920.8  173.012
 6.8896  30728.4  175.182
 7.0876  31857.7  179.11
 7.2856  31797.1  177.994
 7.4836  32197.8  178.534
 7.6816  33069.7  181.379
 7.8796  34468.5  185.186
 8.0776  37047.9  192.989
 8.2756  38467.9  195.227
 8.4736  38499.6  195.12
 8.6716  38139.6  194.857
 8.8696  38384.9  195.924
 9.0676  37564.2  193.174
 9.2656  36191.6  190.304
 9.4636  36007.7  188.216
 9.6616  34756  185.697
 9.8596  33788  182.559
 10.0576  31957.5  178.226
 10.2556  30649.6  174.969
 10.4536  32193.4  178.904
 10.6516  33099.1  181.617
 10.8496  28591.2  168.186
 11.0476  28168.8  166.982
 11.2456  29181.1  170.517
 11.4436  27773.2  165.497
 11.6416  26462.7  161.91
 11.8396  25309.3  158.537
 12.0376  25089.5  157.488
 12.2356  25441.7  159.012
 12.4336  24880  156.777
 12.6316  24229.2  154.97
 12.8296  24548  155.635
 13.0276  25190.4  157.849
 13.2256  25005.9  157.629
 13.4236  24834.5  156.857
 13.6216  24914.2  157.118
 13.8196  25363.6  158.294
 14.0176  24306.7  155.158
 14.2156  23841.9  152.799
 14.4136  22830.5  150.91
 14.6116  22333.6  148.458
 14.8096  21802.8  146.67
 15.0076  20626.9  146.504
 15.2056  20525  141.916
 15.4036  19485.7  139.116
 15.6016  18980.2  136.375
 15.7996  18485.8  134.864
 15.9976  17492.5  134.723
 16.1956  17220  130.925
 16.3936  16885.4  128.818
 16.5916  16525.3  128.065
 16.7896  16549.1  128.219
 16.9876  16551.1  129.719
 17.1856  16192.8  126.674
 17.3836  15620  124.301
 17.5816  15395.7  123.901
 17.7796  15377  123.753
 17.9776  15400.1  124.647
 18.1756  15747.1  124.725
 18.3736  15578.7  124.577
 18.5716  14806.7  121.196
 18.7696  15053.1  121.76
 18.9676  14492.7  119.275
 19.1656  14598.2  120.276
 19.3636  14332  119.394
 19.5616  14304.1  119.439
 19.7596  14287.7  118.766
 19.9576  14947  121.54
 20.1556  14159  118.818
 20.3536  13989.4  117.469
 20.5516  13773.1  117.009
 20.7496  13346.6  115.127
 20.9476  13365.1  114.952
 21.1456  13660.1  116.555
 21.3436  13160.3  114.351
 21.5416  13124.1  114.199
 21.7396  12884.6  112.989
 21.9376  13113  113.756
 22.1356  13166.8  114.114
 22.3336  13118.1  114.214
 22.5316  12982.3  113.707
 22.7296  12819.2  112.336
 22.9276  12749.1  112.719
 23.1256  13178.2  114.067
 23.3236  12815.7  113.027
 23.5216  12736.4  112.333
 23.7196  12621.2  111.769
 23.9176  12547.6  111.196
 24.1156  12357.6  110.827
 24.3136  11989.4  109.962
 24.5116  12172.4  110.324
 24.7096  11913.8  108.96
 24.9076  11584.5  107.468
 25.1056  11470.2  107.409
 25.3036  11271.5  105.981
 25.5016  11357.1  106.418
 25.6996  11334.1  105.879
 25.8976  11365  106.466
 26.0956  11402.3  106.667
 26.2936  11190.3  105.313
 26.4916  11286.5  105.637
 26.6896  10985.2  104.523
 26.8876  10827  103.616
 27.0856  10764.4  103.368
 27.2836  10627  102.669
 27.4816  10657.6  102.682
 27.6796  10464  102.12
 27.8776  10476  102.035
 28.0756  10411.6  102.019
 28.2736  10411.5  101.593
 28.4716  10245.4  100.825
 28.6696  10225.2  100.57
 28.8676  10017.3  99.8944
 29.0656  9869.95  99.1407
 29.2636  9883.35  98.9961
 29.4616  9927.31  99.4085
 29.6596  9785.77  98.2611
 29.8576  9761.45  98.832
 30.0556  9791.22  98.8507
 30.2536  9869.56  99.0419
 30.4516  9939.31  99.0234
 30.6496  9729.57  97.6962
 30.8476  9528.33  97.1214
 31.0456  9510.41  96.9906
 31.2436  9508.67  96.2423
 31.4416  9366.13  95.7094
 31.6396  9550.79  96.6975
 31.8376  9449.82  95.7253
 32.0356  9440.66  96.2539
 32.2336  9250.21  94.656
 32.4316  9173.03  94.6313
 32.6296  9169.47  94.4945
 32.8276  9229.38  94.5735
 33.0256  9018.61  93.5648
 33.2236  9130.14  94.2786
 33.4216  9169.37  94.1779
 33.6196  9108.42  94.1626
 33.8176  9016.36  93.8438
 34.0156  9011.62  93.4353
 34.2136  8827.84  92.5108
 34.4116  8853.99  92.9194
 34.6096  8878.65  92.8098
 34.8076  8678.19  92.1651
 35.0056  8763.15  92.3041
 35.2036  8661.44  91.9663
 35.4016  8753.78  92.3907
 35.5996  8604.82  91.6346
 35.7976  8604.99  91.9084
 35.9956  8764.92  92.395
 36.1936  8505.45  90.8876
 36.3916  8432.8  90.6338
 36.5896  8548.77  92.2856
 36.7876  8418.19  90.9894
 36.9856  8273.48  90.2246
 37.1836  8524.61  90.6763
 37.3816  8384.1  90.2922
 37.5796  8148.5  90.727
 37.7776  8203.56  89.3842
 37.9756  8157.59  89.0219
 38.1736  8275.47  89.861
 38.3716  8279.62  90.1675
 38.5696  8153.35  89.8623
 38.7676  7981.38  88.4126
 38.9656  7944.15  87.845
 39.1636  7966.98  88.2253
 39.3616  8101.52  88.9116
 39.5596  8045.52  89.4499
 39.7576  8001.94  88.5781
 39.9556  8140.43  88.9845
 40.1536  8205.56  89.5385
 40.3516  8207.86  89.556
 40.5496  8154.29  89.5413
 40.7476  8168.15  89.6125
 40.9456  8155.31  89.2865
 41.1436  8157.33  89.022
 41.3416  8163.96  89.3669
 41.5396  8077.54  88.6663
 41.7376  8084.29  89.0354
 41.9356  8009.83  88.481
 42.1336  8069.21  88.955
 42.3316  7995.66  88.757
 42.5296  8029.84  88.4524
 42.7276  8004.43  88.5535
 42.9256  8021.07  88.5162
 43.1236  7900.45  87.9572
 43.3216  7850.41  87.424
 43.5196  7826.17  87.3513
 43.7176  7769.51  87.433
 43.9156  7815.72  87.6065
 44.1136  7726.91  86.6625
 44.3116  7749.94  86.798
 44.5096  7638.37  86.4862
 44.7076  7755.12  87.0757
 44.9056  7677.2  86.4902
 45.1036  7599.54  85.6712
 45.3016  7503.85  85.6317
 45.4996  7553.64  85.8579
 45.6976  7390.13  85.1016
 45.8956  7495.64  85.5265
 46.0936  7502.21  85.5144
 46.2916  7456.63  85.2854
 46.4896  7469.21  85.3919
 46.6876  7505.89  86.3197
 46.8856  7318.06  84.4873
 47.0836  7349.35  84.9158
 47.2816  7283.57  84.425
 47.4796  7282  84.515
 47.6776  7159.94  84.7509
 47.8756  7234.95  84.3626
 48.0736  7224.87  84.7623
 48.2716  7128.5  84.0513
 48.4696  7157.46  83.8089
 48.6676  7139.76  84.2624
 48.8656  7142.82  83.996
 49.0636  7164.69  84.0843
 49.2616  7026.13  83.1923
 49.4596  6942.23  82.5273
 49.6576  6955.61  82.6756
 49.8556  6997.87  82.9427
 50.0536  6795.56  82.1758
 50.2516  6868.81  82.7501
 50.4496  6821.06  82.1213
 50.6476  7024.41  83.0148
 50.8456  6977.45  82.8229
 51.0436  6759.78  81.9702
 51.2416  6778.16  81.7514
 51.4396  6567.56  80.8557
 51.6376  6660.56  81.2671
 51.8356  6677.53  80.9997
 52.0336  6563.76  80.7937
 52.2316  6628.05  81.5433
 52.4296  6639.87  81.3164
 52.6276  6631.65  81.3668
 52.8256  6669.5  81.1602
 53.0236  6445.12  80.4267
 53.2216  6463.6  80.5775
 53.4196  6288.42  79.4036
 53.6176  6362.08  80.3409
 53.8156  6497.96  80.8628
 54.0136  6417.06  80.535
 54.2116  6415.78  80.1834
 54.4096  6412.81  80.2258
 54.6076  6413.85  80.5782
 54.8056  6331.01  79.8407
 55.0036  6364.11  80.4309
 55.2016  6318.95  79.7506
 55.3996  6380.55  80.0596
 55.5976  6307.03  79.79
 55.7956  6320.78  79.683
 55.9936  6300.26  79.6933
 56.1916  6350.27  80.0243
 56.3896  6321.19  79.8398
 56.5876  6306.05  80.2969
 56.7856  6226.85  79.2731
 56.9836  6278.97  79.3812
 57.1816  6293.81  79.7607
 57.3796  6245.55  79.354
 57.5776  6276.08  79.4677
 57.7756  6222.12  79.7728
 57.9736  6180  79.1719
 58.1716  6246.86  79.8456
 58.3696  6137.58  78.9039
 58.5676  6378.6  79.9016
 58.7656  6301.16  80.0919
 58.9636  6251.78  79.8173
 59.1616  6202.53  79.6225
 59.3596  6381.25  80.0057
 59.5576  6214.17  79.0092
 59.7556  6181.45  79.2241
 59.9536  6310.99  79.9465
 60.1516  6319.2  80.8667
 60.1996  6422.12  84.7666

File: 17_Da_f00140.xye
# /beamlines/bl04/projects/cycle2025-II/20250340211-lsimonelli/DATA/IS17_D/17_Da_f00140.xye : mythproc.py merge -s 0.006 -l 0.5 -f /beamlines/bl04/inhouse/ff/FlatField/ff_20Nov2024rod8mm60s_17keV.raw -b True -c true -o xye /beamlines/bl04/projects/cycle2025-II/20250340211-lsimonelli/DATA/IS17_D/17_Da_00140.dat
# IsMon = [6744633, 6744547, 6745755]  IsPos = [-1.4999, -2.4884, -3.4988]
# Wave = 0.4962  CalPath /beamlines/bl04/projects/cycle2025-II/20250340211-lsimonelli/DATA/Align/Si_Pos1_25keV_f00001.cal
# Date = 2025-09-25_08:36:02 Dt = 4.8000  Bin = 0.0060  <imon> = 6744978 +/- 550 (Min/Max) 6744547 / 6745755
# icurr 248.8834  mocoIn 1.6998E-05  mocoOut 0.7972  i15 7.06363e+06  imon 6.74498e+06  i7 5.6667  iEMpd_timer 4.8000  iEMpd_1 3.5700E-08  iEMpd_2 7.8076E-08  iEMpd_3 1.7272E-08  iEMpd_4 4.8111E-08  iEMhp_timer 4.8000  iEMhp_1 4.8644E-06  iEMhp_2 -2.5164E-08  iEMhp_3 -2.3491E-08  iEMhp_4 -2.1619E-08
#      9776
 1.7416  68781.1  262.343
 1.9396  45263.9  213.096
 2.1376  31983.8  179.123
 2.3356  28718.9  169.378
 2.5336  26988.8  164.775
 2.7316  25052.2  158.864
 2.9296  24222.5  156.375
 3.1276  23564.7  153.781
 3.3256  23221.2  152.337
 3.5236  25030.4  157.965
 3.7216  22854.9  152.166
 3.9196  22533  150.328
 4.1176  22392.8  149.629
 4.3156  23607  153.798
 4.5136  26298.4  161.314
 4.7116  27064.9  164.777
 4.9096  26389.7  162.147
 5.1076  26013.6  161.561
 5.3056  26324.7  162.258
 5.5036  26204.8  161.785
 5.7016  26765.2  163.472
 5.8996  27373.3  164.538
 6.0976  28010.3  167.869
 6.2956  28520  168.73
 6.4936  29361.9  170.392
 6.6916  29632.5  172.173
 6.8896  30367.1  174.156
 7.0876  31337.1  177.638
 7.2856  31248.5  176.448
 7.4836  31767.1  177.241
 7.6816  32677.3  180.301
 7.8796  33895.3  183.623
 8.0776  36472.2  191.467
 8.2756  37773.9  193.451
 8.4736  38306.5  194.615
 8.6716  37619.7  193.502
 8.8696  38100.7  195.22
 9.0676  37021.5  191.781
 9.2656  35932.1  189.635
 9.4636  35237.9  186.19
 9.6616  34578.7  185.223
 9.8596  33093.3  180.676
 10.0576  31362.1  176.548
 10.2556  30251.5  173.832
 10.4536  31556.2  177.133
 10.6516  32457.4  179.846
 10.8496  28089.3  166.717
 11.0476  27750.5  165.735
 11.2456  28025  167.105
 11.4436  27145.2  163.615
 11.6416  26377.8  161.649
 11.8396  25056.8  157.751
 12.0376  24713.8  156.303
 12.2356  24970.1  157.528
 12.4336  24546.1  155.728
 12.6316  23892.2  153.901
 12.8296  24332.2  154.951
 13.0276  24942.2  157.062
 13.2256  24632.8  156.441
 13.4236  24713.8  156.475
 13.6216  24467.8  155.709
 13.8196  24834.2  156.636
 14.0176  24214.4  154.96
 14.2156  23773.9  152.577
 14.4136  22279.4  149.067
 14.6116  22011.8  147.387
 14.8096  21432.7  145.418
 15.0076  20514.5  146.102
 15.2056  19968.2  139.964
 15.4036  19069.1  137.597
 15.6016  18610  135.023
 15.7996  18173.9  133.712
 15.9976  17398  133.765
 16.1956  16830  129.442
 16.3936  16508.1  127.38
 16.5916  16598.7  128.359
 16.7896  16417.8  127.718
 16.9876  16278.2  128.653
 17.1856  16028.4  126.024
 17.3836  15447.8  123.623
 17.5816  15254.9  123.333
 17.7796  15136  122.784
 17.9776  15086.5  123.376
 18.1756  15497  123.729
 18.3736  15283.2  123.388
 18.5716  14775  121.069
 18.7696  14619.3  119.996
 18.9676  14202.7  118.083
 19.1656  14240.2  118.788
 19.3636  14214.2  118.895
 19.5616  14206  119.024
 19.7596  14201.6  118.414
 19.9576  14782.2  120.864
 20.1556  14081.6  118.49
 20.3536  13586  115.77
 20.5516  13576.4  116.171
 20.7496  13272.9  114.804
 20.9476  13213.7  114.3
 21.1456  13398.8  115.428
 21.3436  12960.9  113.478
 21.5416  12874.9  113.103
 21.7396  12852.5  112.849
 21.9376  12978.3  113.169
 22.1356  13003.6  113.404
 22.3336  12818.5  112.89
 22.5316  12735.5  112.599
 22.7296  12767.6  112.115
 22.9276  12723.9  112.597
 23.1256  12964.5  113.124
 23.3236  12617.5  112.153
 23.5216  12702.6  112.188
 23.7196  12611.2  111.732
 23.9176  12347.2  110.313
 24.1156  12254.1  110.369
 24.3136  11893.7  109.526
 24.5116  11939.3  109.265
 24.7096  11696.9  107.966
 24.9076  11387.9  106.556
 25.1056  11192.9  106.103
 25.3036  11238.2  105.823
 25.5016  11231.5  105.823
 25.6996  11233.8  105.41
 25.8976  11162.3  105.522
 26.0956  11207.7  105.746
 26.2936  11064.8  104.722
 26.4916  11105.5  104.789
 26.6896  10786.4  103.574
 26.8876  10712  103.066
 27.0856  10770.9  103.396
 27.2836  10433  101.661
 27.4816  10503.2  101.932
 27.6796  10391.3  101.77
 27.8776  10352.5  101.437
 28.0756  10292.9  101.425
 28.2736  10173.7  100.421
 28.4716  9931.33  99.2673
 28.6696  10094.7  99.9239
 28.8676  9845.06  99.0342
 29.0656  9778.94  98.6763
 29.2636  9856.96  98.8637
 29.4616  9645.43  97.9796
 29.6596  9773.51  98.1911
 29.8576  9594.06  97.9715
 30.0556  9711.4  98.4399
 30.2536  9706.08  98.2109
 30.4516  9606.37  97.3573
 30.6496  9543.75  96.7645
 30.8476  9554.89  97.2635
 31.0456  9381.17  96.3373
 31.2436  9450.74  95.9615
 31.4416  9136.42  94.5292
 31.6396  9360.11  95.7289
 31.8376  9409.44  95.5223
 32.0356  9220.31  95.1209
 32.2336  9143.96  94.1146
 32.4316  9054.39  94.0597
 32.6296  9114.34  94.2057
 32.8276  9036.05  93.5803
 33.0256  8946.57  93.1883
 33.2236  8938.78  93.2922
 33.4216  9037.73  93.4998
 33.6196  8945.97  93.3159
 33.8176  8975.87  93.6327
 34.0156  8832.71  92.4862
 34.2136  8747.22  92.0909
 34.4116  8679.39  91.8886
 34.6096  8749.44  92.1293
 34.8076  8568.43  91.5892
 35.0056  8627.48  91.5877
 35.2036  8608.03  91.6908
 35.4016  8538.94  91.2493
 35.5996  8529.78  91.2342
 35.7976  8369.62  90.6507
 35.9956  8451.09  90.7323
 36.1936  8466.43  90.6844
 36.3916  8360.32  90.2896
 36.5896  8373.99  91.3345
 36.7876  8342.3  90.5701
 36.9856  8151.24  89.5549
 37.1836  8267.04  89.2884
 37.3816  8241.61  89.5125
 37.5796  8154.11  90.7616
 37.7776  8001.98  88.2905
 37.9756  8045.69  88.4149
 38.1736  8299.77  90.0046
 38.3716  8180.1  89.6244
 38.5696  8008.65  89.0654
 38.7676  7764.33  87.2059
 38.9656  7942.96  87.8401
 39.1636  7929.39  88.0243
 39.3616  8000.36  88.3513
 39.5596  7949.31  88.9156
 39.7576  7865.6  87.8202
 39.9556  7918.27  87.7562
 40.1536  8070.69  88.8029
 40.3516  7994.1  88.3862
 40.5496  7946.37  88.3836
 40.7476  7993.28  88.6566
 40.9456  8143.5  89.2255
 41.1436  8010.85  88.2206
 41.3416  7933.32  88.1278
 41.5396  7952.07  88.0423
 41.7376  7972.64  88.4126
 41.9356  7935.84  88.0731
 42.1336  7967.42  88.3981
 42.3316  7887.83  88.151
 42.5296  8024.44  88.4259
 42.7276  7908.78  88.0269
 42.9256  7781.98  87.189
 43.1236  7786.95  87.324
 43.3216  7754.83  86.8916
 43.5196  7618.59  86.1902
 43.7176  7692.66  86.998
 43.9156  7649.58  86.6642
 44.1136  7557.24  85.6965
 44.3116  7574.95  85.8133
 44.5096  7551.48  85.9891
 44.7076  7599.69  86.1918
 44.9056  7490.04  85.4344
 45.1036  7526.99  85.2723
 45.3016  7426.18  85.197
 45.4996  7362.05  84.7675
 45.6976  7297.98  84.5683
 45.8956  7392.95  84.9395
 46.0936  7456.58  85.3099
 46.2916  7370.33  84.7919
 46.4896  7383.57  84.907
 46.6876  7216.14  84.6357
 46.8856  7186.74  83.7268
 47.0836  7181.54  83.9512
 47.2816  7151.1  83.6524
 47.4796  7140.97  83.6982
 47.6776  7065.68  84.1942
 47.8756  7166.24  83.9652
 48.0736  7090.95  83.9756
 48.2716  6896.03  82.6347
 48.4696  7102.97  83.4627
 48.6676  6945.07  83.1012
 48.8656  6986.38  83.0761
 49.0636  7050.45  83.4058
 49.2616  6847.43  82.2308
 49.4596  6886.16  82.0344
 49.6576  6877.94  82.2089
 49.8556  6873.2  82.2
 50.0536  6871.03  82.6303
 50.2516  6826.66  82.481
 50.4496  6768.84  81.8044
 50.6476  6844.71  81.9476
 50.8456  6748.01  81.4459
 51.0436  6641.04  81.2407
 51.2416  6674.66  81.1171
 51.4396  6546.8  80.732
 51.6376  6586.51  80.8057
 51.8356  6560.38  80.2809
 52.0336  6457.75  80.1472
 52.2316  6344.7  79.7835
 52.4296  6550.31  80.7627
 52.6276  6451.48  80.2583
 52.8256  6485.41  80.0338
 53.0236  6372.95  79.9755
 53.2216  6388.6  80.1102
 53.4196  6254.02  79.1803
 53.6176  6283.61  79.8459
 53.8156  6298.32  79.6094
 54.0136  6372.87  80.2596
 54.2116  6374.85  79.9284
 54.4096  6388.65  80.0665
 54.6076  6268.64  79.6611
 54.8056  6132.24  78.5797
 55.0036  6199.91  79.4005
 55.2016  6213.64  79.0369
 55.3996  6236.2  79.15
 55.5976  6277.91  79.6031
 55.7956  6259.5  79.3
 55.9936  6165.73  78.8368
 56.1916  6282.36  79.6023
 56.3896  6198.99  79.063
 56.5876  6176.8  79.4668
 56.7856  6160.38  78.8459
 56.9836  6040.56  77.8618
 57.1816  6195.82  79.2386
 57.3796  6176.1  78.9087
 57.5776  6144.71  78.6406
 57.7756  6125.95  79.156
 57.9736  6209.05  79.3611
 58.1716  6156  79.2637
 58.3696  6088.44  78.5758
 58.5676  6091.67  78.0698
 58.7656  6207  79.4899
 58.9636  6337.43  80.3527
 59.1616  6185.7  79.5167
 59.3596  6227.4  79.0265
 59.5576  6152.02  78.6103
 59.7556  6112.08  78.7754
 59.9536  6228.6  79.4201
 60.1516  6326.48  80.9104
 60.1996  0.0000000E+00  0.0000000E+00