Folder: echemistpy/docs/examples/opeando_xrd/IS17_D/Data/IS17_D (part 59)

File: 17_Da_f00151.xye
# /beamlines/bl04/projects/cycle2025-II/20250340211-lsimonelli/DATA/IS17_D/17_Da_f00151.xye : mythproc.py merge -s 0.006 -l 0.5 -f /beamlines/bl04/inhouse/ff/FlatField/ff_20Nov2024rod8mm60s_17keV.raw -b True -c true -o xye /beamlines/bl04/projects/cycle2025-II/20250340211-lsimonelli/DATA/IS17_D/17_Da_00151.dat
# IsMon = [6784309, 6784692, 6784621]  IsPos = [-1.5000, -2.4883, -3.4988]
# Wave = 0.4962  CalPath /beamlines/bl04/projects/cycle2025-II/20250340211-lsimonelli/DATA/Align/Si_Pos1_25keV_f00001.cal
# Date = 2025-09-25_11:38:11 Dt = 4.8000  Bin = 0.0060  <imon> = 6784541 +/- 166 (Min/Max) 6784309 / 6784692
# icurr 253.0017  mocoIn 1.7252E-05  mocoOut 0.8089  i15 7.10489e+06  imon 6.78454e+06  i7 4.0000  iEMpd_timer 4.8000  iEMpd_1 3.3994E-08  iEMpd_2 7.7065E-08  iEMpd_3 1.6928E-08  iEMpd_4 4.7278E-08  iEMhp_timer 4.8000  iEMhp_1 4.9403E-06  iEMhp_2 -2.6759E-08  iEMhp_3 -2.4201E-08  iEMhp_4 -2.0587E-08
#      9776
 1.7416  71059.6  266.651
 1.9396  46713.6  216.472
 2.1376  33127.7  182.297
 2.3356  29722.6  172.311
 2.5336  27787.6  167.194
 2.7316  26000.8  161.837
 2.9296  24826  158.307
 3.1276  24302.9  156.176
 3.3256  23951.8  154.73
 3.5236  26110.7  161.335
 3.7216  23599.7  154.623
 3.9196  23241.4  152.668
 4.1176  23100.2  151.974
 4.3156  24398.2  156.354
 4.5136  26847.2  162.985
 4.7116  27890.1  167.268
 4.9096  27069.7  164.222
 5.1076  26898.6  164.286
 5.3056  27265.8  165.133
 5.5036  27110.2  164.552
 5.7016  27629.8  166.091
 5.8996  28436.8  167.703
 6.0976  29042.8  170.94
 6.2956  29416.9  171.361
 6.4936  30011.1  172.27
 6.6916  30299.8  174.098
 6.8896  31067.3  176.151
 7.0876  32402.4  180.551
 7.2856  32147.3  178.97
 7.4836  32488.2  179.33
 7.6816  33360.2  182.174
 7.8796  34699.6  185.789
 8.0776  36169.3  190.673
 8.2756  38089.5  194.258
 8.4736  39018.2  196.418
 8.6716  38082.2  194.686
 8.8696  37845.5  194.569
 9.0676  37255.8  192.397
 9.2656  36335.7  190.696
 9.4636  35720.5  187.472
 9.6616  35325.9  187.225
 9.8596  33857.9  182.747
 10.0576  32027.2  178.41
 10.2556  31026.5  176.041
 10.4536  30125.7  173.065
 10.6516  29345.1  171.004
 10.8496  28581.3  168.174
 11.0476  27704  165.6
 11.2456  27401.7  165.227
 11.4436  27591.1  164.95
 11.6416  27104.1  163.862
 11.8396  25207.3  158.224
 12.0376  25206.7  157.858
 12.2356  24627.3  156.436
 12.4336  24599.9  155.892
 12.6316  24290.8  155.176
 12.8296  24694.4  156.093
 13.0276  25198.9  157.869
 13.2256  25187  158.201
 13.4236  24957.6  157.243
 13.6216  24992.3  157.371
 13.8196  25157.2  157.654
 14.0176  24684.9  156.458
 14.2156  23955.3  153.162
 14.4136  22664.9  150.35
 14.6116  22498.5  149.005
 14.8096  21938  147.125
 15.0076  20649.2  146.579
 15.2056  20394.1  141.45
 15.4036  19468  139.048
 15.6016  18910.5  136.114
 15.7996  18670.9  135.53
 15.9976  17835.9  135.456
 16.1956  17222.1  130.946
 16.3936  16940.3  129.035
 16.5916  16769.4  129.016
 16.7896  16880.6  129.51
 16.9876  16584.8  129.844
 17.1856  16305.7  127.104
 17.3836  16080.3  126.114
 17.5816  15566  124.582
 17.7796  15544  124.423
 17.9776  15209.6  123.879
 18.1756  15234.5  122.683
 18.3736  15091.3  122.613
 18.5716  14944.9  121.759
 18.7696  14951.4  121.354
 18.9676  14591.2  119.684
 19.1656  14447.4  119.663
 19.3636  14469.1  119.962
 19.5616  14339.6  119.592
 19.7596  14411.7  119.288
 19.9576  14814.1  120.99
 20.1556  14551  120.449
 20.3536  13977.8  117.422
 20.5516  13715.4  116.768
 20.7496  13506.6  115.723
 20.9476  13355.8  114.915
 21.1456  13552.9  116.096
 21.3436  13309.2  114.999
 21.5416  13161.9  114.362
 21.7396  12984  113.429
 21.9376  13112.2  113.754
 22.1356  12921.7  113.195
 22.3336  13159.3  114.382
 22.5316  13145.3  114.412
 22.7296  13003.1  113.143
 22.9276  13139.1  114.424
 23.1256  13153.1  113.949
 23.3236  13000.2  113.847
 23.5216  12681.3  112.097
 23.7196  12651  112.131
 23.9176  12631.7  111.575
 24.1156  12485.8  111.409
 24.3136  12077.3  110.368
 24.5116  12153.5  110.237
 24.7096  11847.1  108.656
 24.9076  11597.8  107.53
 25.1056  11248.2  106.364
 25.3036  11250.6  105.883
 25.5016  11247  105.899
 25.6996  11114.9  104.858
 25.8976  11236  105.864
 26.0956  11308.4  106.228
 26.2936  11241.8  105.556
 26.4916  11229.1  105.378
 26.6896  10893.8  104.088
 26.8876  10851.8  103.735
 27.0856  10891.6  103.986
 27.2836  10627.3  102.664
 27.4816  10512.9  101.983
 27.6796  10451.5  102.065
 27.8776  10369.3  101.518
 28.0756  10438.3  102.144
 28.2736  10301.8  101.053
 28.4716  10153.5  100.369
 28.6696  10141.6  100.162
 28.8676  9997.11  99.7928
 29.0656  9829.89  98.9444
 29.2636  9973.16  99.4447
 29.4616  9847.91  99.003
 29.6596  9845.06  98.5501
 29.8576  9775.74  98.8964
 30.0556  9663.81  98.202
 30.2536  9976.46  99.5702
 30.4516  9658.76  97.6246
 30.6496  9572.35  96.9125
 30.8476  9635.39  97.6737
 31.0456  9435.14  96.6179
 31.2436  9455.23  95.9815
 31.4416  9461.12  96.1912
 31.6396  9453.09  96.2009
 31.8376  9463.65  95.7944
 32.0356  9384.28  95.9629
 32.2336  9335.2  95.0884
 32.4316  9239.24  94.9726
 32.6296  9184.93  94.5679
 32.8276  9211.52  94.486
 33.0256  9102.71  93.9992
 33.2236  9098.71  94.1173
 33.4216  9241.66  94.5392
 33.6196  9079.01  94.0057
 33.8176  9119.36  94.3791
 34.0156  8929.98  93.008
 34.2136  8895.84  92.8667
 34.4116  8853.44  92.9166
 34.6096  8848.96  92.6565
 34.8076  8685.43  92.2077
 35.0056  8769.32  92.3359
 35.2036  8726.16  92.3177
 35.4016  8684.3  92.0189
 35.5996  8587.96  91.5391
 35.7976  8541.6  91.577
 35.9956  8636.14  91.7149
 36.1936  8524.94  90.9929
 36.3916  8501.2  91.0033
 36.5896  8432.93  91.6658
 36.7876  8483.81  91.333
 36.9856  8384.73  90.8242
 37.1836  8399.52  90.0003
 37.3816  8445.5  90.6156
 37.5796  8326.61  91.7229
 37.7776  8228.23  89.5359
 37.9756  8204.86  89.285
 38.1736  8262.54  89.7982
 38.3716  8242.26  89.9706
 38.5696  8189.75  90.0559
 38.7676  7941.19  88.1926
 38.9656  8049.11  88.4228
 39.1636  7904.7  87.8901
 39.3616  8086.55  88.8268
 39.5596  7958.64  88.9639
 39.7576  7968.97  88.392
 39.9556  8085.07  88.6817
 40.1536  8173.86  89.3664
 40.3516  8106.47  89.0112
 40.5496  8231.48  89.9614
 40.7476  8134  89.431
 40.9456  8224.11  89.6693
 41.1436  8131.12  88.8827
 41.3416  8081.62  88.9158
 41.5396  8084.29  88.7033
 41.7376  8063.11  88.9194
 41.9356  7953.19  88.1636
 42.1336  8054.72  88.8809
 42.3316  8051.85  89.0653
 42.5296  8035.58  88.4849
 42.7276  8024.3  88.6661
 42.9256  7971.6  88.2464
 43.1236  7901.53  87.9633
 43.3216  7954.23  88.0023
 43.5196  7868.12  87.5907
 43.7176  7743.5  87.2893
 43.9156  7746.2  87.2156
 44.1136  7749.46  86.7825
 44.3116  7809.74  87.1329
 44.5096  7645.35  86.5208
 44.7076  7749.94  87.0403
 44.9056  7654.01  86.3663
 45.1036  7572.88  85.5337
 45.3016  7452.61  85.3514
 45.4996  7435.61  85.1919
 45.6976  7452.93  85.4653
 45.8956  7382.59  84.8799
 46.0936  7506.3  85.3555
 46.2916  7565.37  85.9067
 46.4896  7430.25  85.1691
 46.6876  7286.28  85.0424
 46.8856  7237.27  84.0253
 47.0836  7225.63  84.203
 47.2816  7235.78  84.1441
 47.4796  7301.2  84.6222
 47.6776  7165.66  84.784
 47.8756  7162.68  83.944
 48.0736  7244.03  84.8801
 48.2716  6979.7  83.172
 48.4696  7059.66  83.2306
 48.6676  6995.89  83.3997
 48.8656  7145.01  84.0111
 49.0636  7095.87  83.6699
 49.2616  6901.29  82.4467
 49.4596  6998.06  82.8416
 49.6576  6986.25  82.8514
 49.8556  7069.3  83.365
 50.0536  6974.95  83.2518
 50.2516  6896.51  82.9165
 50.4496  6833.05  82.1869
 50.6476  6940.81  82.5183
 50.8456  6882.79  82.2592
 51.0436  6787.03  82.1292
 51.2416  6759.59  81.6379
 51.4396  6576.38  80.9152
 51.6376  6645.29  81.1641
 51.8356  6715.43  81.2232
 52.0336  6489.68  80.347
 52.2316  6536.07  80.9834
 52.4296  6590.1  81.0081
 52.6276  6589.83  81.1213
 52.8256  6552.42  80.4549
 53.0236  6501.6  80.7786
 53.2216  6487.61  80.6995
 53.4196  6296.12  79.451
 53.6176  6418.88  80.6973
 53.8156  6397.43  80.2308
 54.0136  6422.79  80.5745
 54.2116  6387.79  80.0121
 54.4096  6366.67  79.9275
 54.6076  6414.42  80.5796
 54.8056  6221.14  79.1473
 55.0036  6288.42  79.8395
 55.2016  6369.42  79.9455
 55.3996  6361.84  79.944
 55.5976  6344.89  80.023
 55.7956  6264.64  79.3298
 55.9936  6204.77  79.0869
 56.1916  6302.37  79.7263
 56.3896  6328.02  79.8807
 56.5876  6214.57  79.7094
 56.7856  6197.58  79.0825
 56.9836  6155.8  78.6011
 57.1816  6242.31  79.5355
 57.3796  6261.57  79.455
 57.5776  6274.17  79.4627
 57.7756  6147.06  79.2921
 57.9736  6161.09  79.0542
 58.1716  6184.32  79.4475
 58.3696  6142.47  78.9287
 58.5676  6177.37  78.6218
 58.7656  6117.03  78.9127
 58.9636  6287.71  80.0392
 59.1616  6247.31  79.9135
 59.3596  6231.7  79.0634
 59.5576  6194.46  78.8851
 59.7556  6266.34  79.7675
 59.9536  6327.98  80.0553
 60.1516  6280.75  80.6216
 60.1996  0.0000000E+00  0.0000000E+00

File: 17_Da_f00152.xye
# /beamlines/bl04/projects/cycle2025-II/20250340211-lsimonelli/DATA/IS17_D/17_Da_f00152.xye : mythproc.py merge -s 0.006 -l 0.5 -f /beamlines/bl04/inhouse/ff/FlatField/ff_20Nov2024rod8mm60s_17keV.raw -b True -c true -o xye /beamlines/bl04/projects/cycle2025-II/20250340211-lsimonelli/DATA/IS17_D/17_Da_00152.dat
# IsMon = [6784141, 6788892, 6791543]  IsPos = [-1.4999, -2.4883, -3.4988]
# Wave = 0.4962  CalPath /beamlines/bl04/projects/cycle2025-II/20250340211-lsimonelli/DATA/Align/Si_Pos1_25keV_f00001.cal
# Date = 2025-09-25_11:57:11 Dt = 4.8000  Bin = 0.0060  <imon> = 6788192 +/- 3062 (Min/Max) 6784141 / 6791543
# icurr 252.8924  mocoIn 1.7247E-05  mocoOut 0.8099  i15 7.10578e+06  imon 6.78819e+06  i7 3.6667  iEMpd_timer 4.8000  iEMpd_1 3.4681E-08  iEMpd_2 7.9564E-08  iEMpd_3 1.7189E-08  iEMpd_4 4.7751E-08  iEMhp_timer 4.8000  iEMhp_1 4.9429E-06  iEMhp_2 -2.5033E-08  iEMhp_3 -2.4028E-08  iEMhp_4 -2.1372E-08
#      9776
 1.7416  70774.6  266.191
 1.9396  46720.4  216.549
 2.1376  33062  182.167
 2.3356  29684.2  172.248
 2.5336  27034.4  164.959
 2.7316  25931.5  161.633
 2.9296  24845.5  158.389
 3.1276  24477.3  156.76
 3.3256  24306.3  155.889
 3.5236  26008.1  161.028
 3.7216  23837.3  155.399
 3.9196  23263.4  152.738
 4.1176  23064  151.869
 4.3156  24413.8  156.395
 4.5136  26828.3  162.928
 4.7116  27784.4  166.95
 4.9096  27297.7  164.911
 5.1076  26931.5  164.399
 5.3056  27392.3  165.507
 5.5036  27208.1  164.846
 5.7016  27778.5  166.536
 5.8996  28432.3  167.69
 6.0976  29068.8  171.024
 6.2956  29546.2  171.728
 6.4936  30001.2  172.243
 6.6916  30476.2  174.61
 6.8896  31379.5  177.036
 7.0876  32203.2  180.077
 7.2856  32142.3  178.954
 7.4836  32642.9  179.753
 7.6816  33410.7  182.312
 7.8796  34970  186.489
 8.0776  36418.2  191.301
 8.2756  38095  194.237
 8.4736  39079.3  196.545
 8.6716  38087.4  194.678
 8.8696  37637.9  194.04
 9.0676  37315.1  192.552
 9.2656  36013.9  189.851
 9.4636  35945.5  188.056
 9.6616  35131.4  186.692
 9.8596  33712.6  182.375
 10.0576  32111.4  178.655
 10.2556  30834.1  175.518
 10.4536  30198.4  173.296
 10.6516  29173.9  170.524
 10.8496  28454.7  167.8
 11.0476  27920.7  166.245
 11.2456  27118  164.371
 11.4436  27454.3  164.545
 11.6416  27118.3  163.896
 11.8396  25330.4  158.622
 12.0376  25430.7  158.549
 12.2356  24696.2  156.656
 12.4336  24631.3  155.992
 12.6316  24399.9  155.532
 12.8296  24600.8  155.804
 13.0276  25199.3  157.862
 13.2256  25143.7  158.059
 13.4236  25031.7  157.478
 13.6216  24891.7  157.064
 13.8196  24954.2  157.016
 14.0176  24603.2  156.189
 14.2156  24075.7  153.549
 14.4136  22910.8  151.173
 14.6116  22655.1  149.521
 14.8096  21961  147.192
 15.0076  20759.5  146.96
 15.2056  20343.5  141.256
 15.4036  19412.5  138.818
 15.6016  19157.5  136.977
 15.7996  18659.9  135.467
 15.9976  17812.9  135.321
 16.1956  17431  131.739
 16.3936  17030.3  129.384
 16.5916  16784.1  129.084
 16.7896  16873.3  129.485
 16.9876  16572.2  129.809
 17.1856  16372.9  127.376
 17.3836  15979.5  125.743
 17.5816  15539.1  124.483
 17.7796  15362  123.709
 17.9776  15191.9  123.806
 18.1756  15341.5  123.091
 18.3736  15071.5  122.532
 18.5716  14872.6  121.467
 18.7696  14889.5  121.103
 18.9676  14533.8  119.458
 19.1656  14529.4  119.994
 19.3636  14472.9  119.973
 19.5616  14286.1  119.356
 19.7596  14364  119.093
 19.9576  14593.7  120.09
 20.1556  14696.8  121.043
 20.3536  13952.7  117.316
 20.5516  13866.6  117.406
 20.7496  13416.8  115.425
 20.9476  13326.1  114.793
 21.1456  13581.1  116.205
 21.3436  13315.7  115.022
 21.5416  13338.1  115.125
 21.7396  12849.7  112.839
 21.9376  13117.6  113.768
 22.1356  13047.1  113.582
 22.3336  13002.4  113.685
 22.5316  13151.2  114.42
 22.7296  12939.1  112.841
 22.9276  12875  113.251
 23.1256  13092.2  113.657
 23.3236  13010.5  113.905
 23.5216  12745.5  112.38
 23.7196  12607.7  111.724
 23.9176  12702.1  111.904
 24.1156  12693.6  112.335
 24.3136  11962.1  109.856
 24.5116  12017.9  109.634
 24.7096  11878.5  108.813
 24.9076  11644.8  107.77
 25.1056  11402.2  107.102
 25.3036  11334  106.271
 25.5016  11352.3  106.394
 25.6996  11331.2  105.872
 25.8976  11243.7  105.91
 26.0956  11243.6  105.916
 26.2936  11104.5  104.907
 26.4916  11301.2  105.714
 26.6896  10997.3  104.579
 26.8876  10866  103.812
 27.0856  10859  103.814
 27.2836  10688.9  102.961
 27.4816  10519.7  102.012
 27.6796  10472.7  102.168
 27.8776  10322.4  101.294
 28.0756  10433.7  102.117
 28.2736  10374.5  101.41
 28.4716  10099.4  100.106
 28.6696  10109.3  99.9971
 28.8676  10014.9  99.8804
 29.0656  9931.54  99.4483
 29.2636  9926.69  99.2185
 29.4616  9891.89  99.21
 29.6596  9907.62  98.8492
 29.8576  9812.8  99.068
 30.0556  9803.72  98.8931
 30.2536  9847.92  98.9127
 30.4516  9611.38  97.3861
 30.6496  9788.03  97.9985
 30.8476  9693.64  97.9742
 31.0456  9509.64  97.0058
 31.2436  9488.37  96.1605
 31.4416  9440.15  96.0992
 31.6396  9471.2  96.3035
 31.8376  9378.79  95.3802
 32.0356  9245.67  95.2635
 32.2336  9199.98  94.4192
 32.4316  9207.16  94.8073
 32.6296  9231.08  94.8075
 32.8276  9193.08  94.3852
 33.0256  9032.7  93.6377
 33.2236  9111.98  94.1942
 33.4216  9163.21  94.1334
 33.6196  9085.02  94.0359
 33.8176  9094.27  94.2515
 34.0156  8947.19  93.1008
 34.2136  8945.11  93.1314
 34.4116  8875.41  93.0222
 34.6096  8770.4  92.2388
 34.8076  8657.4  92.0469
 35.0056  8798.44  92.4906
 35.2036  8759.26  92.4972
 35.4016  8619.45  91.6702
 35.5996  8611.04  91.6689
 35.7976  8571.73  91.7323
 35.9956  8674.44  91.9218
 36.1936  8587.39  91.3285
 36.3916  8483.84  90.9063
 36.5896  8483.97  91.9363
 36.7876  8401.61  90.8807
 36.9856  8325.22  90.4935
 37.1836  8413.25  90.0619
 37.3816  8561.23  91.2195
 37.5796  8387.87  92.0566
 37.7776  8154.61  89.1462
 37.9756  8257.38  89.5776
 38.1736  8373.48  90.4029
 38.3716  8204.01  89.7645
 38.5696  8185.18  90.0365
 38.7676  7833.89  87.6028
 38.9656  7968.62  87.9904
 39.1636  8004.06  88.458
 39.3616  8100.32  88.9074
 39.5596  7901.65  88.6564
 39.7576  8003.03  88.5766
 39.9556  8057.72  88.5312
 40.1536  8281.24  89.9555
 40.3516  8125.12  89.1125
 40.5496  8167.17  89.6073
 40.7476  8193.98  89.757
 40.9456  8135.25  89.1812
 41.1436  8181.72  89.1624
 41.3416  8089.37  88.9523
 41.5396  8028.54  88.3917
 41.7376  8157.12  89.4331
 41.9356  8079.13  88.8658
 42.1336  8037.06  88.7866
 42.3316  7918.57  88.3192
 42.5296  8074.62  88.699
 42.7276  8019.69  88.6418
 42.9256  8027.11  88.5489
 43.1236  7918.3  88.0569
 43.3216  7923.43  87.8336
 43.5196  7794.34  87.1849
 43.7176  7776.86  87.4745
 43.9156  7737.47  87.1518
 44.1136  7793.9  87.0173
 44.3116  7685.48  86.4211
 44.5096  7718.27  86.9206
 44.7076  7755.18  87.057
 44.9056  7676.46  86.4934
 45.1036  7467.47  84.9364
 45.3016  7483.9  85.5287
 45.4996  7491.27  85.5117
 45.6976  7280.29  84.4605
 45.8956  7444.55  85.2441
 46.0936  7464.73  85.3096
 46.2916  7509.32  85.5986
 46.4896  7492.56  85.5372
 46.6876  7436.12  85.9321
 46.8856  7356.88  84.7209
 47.0836  7249.65  84.3544
 47.2816  7270.87  84.3445
 47.4796  7212.39  84.1152
 47.6776  7187.29  84.919
 47.8756  7204.71  84.1864
 48.0736  7234.17  84.8228
 48.2716  7081.72  83.7685
 48.4696  7169.84  83.8729
 48.6676  7075.38  83.8818
 48.8656  7135.03  83.9671
 49.0636  7066.25  83.5116
 49.2616  6976.26  82.8946
 49.4596  6880.62  82.1505
 49.6576  6892.29  82.2979
 49.8556  6959.8  82.7151
 50.0536  6901.66  82.814
 50.2516  6987.54  83.4634
 50.4496  6855.06  82.3196
 50.6476  6953.65  82.5973
 50.8456  6914.49  82.4401
 51.0436  6800.22  82.1974
 51.2416  6748.06  81.5521
 51.4396  6556.65  80.7764
 51.6376  6639.88  81.1196
 51.8356  6657.65  80.8606
 52.0336  6571.46  80.8524
 52.2316  6513  80.8398
 52.4296  6520.3  80.5787
 52.6276  6635.66  81.3953
 52.8256  6630.58  80.9289
 53.0236  6425.86  80.3158
 53.2216  6391.77  80.1354
 53.4196  6325.13  79.6362
 53.6176  6380.08  80.4641
 53.8156  6391.42  80.2035
 54.0136  6422.35  80.5578
 54.2116  6438.76  80.3341
 54.4096  6341.91  79.7729
 54.6076  6278.52  79.7215
 54.8056  6425.85  80.4388
 55.0036  6339.86  80.2897
 55.2016  6332.44  79.7953
 55.3996  6358.39  79.9183
 55.5976  6278.16  79.5996
 55.7956  6304.19  79.5841
 55.9936  6275.92  79.5422
 56.1916  6359.68  80.0786
 56.3896  6283.88  79.5953
 56.5876  6208.6  79.6657
 56.7856  6185.16  78.9957
 56.9836  6201  78.8922
 57.1816  6172.9  79.0958
 57.3796  6270.79  79.5131
 57.5776  6146.71  78.6438
 57.7756  6178.3  79.4877
 57.9736  6233.03  79.5142
 58.1716  6227.4  79.7064
 58.3696  6195.83  79.2599
 58.5676  6213.43  78.842
 58.7656  6211.86  79.5009
 58.9636  6283.79  80.0041
 59.1616  6212.77  79.6719
 59.3596  6316.03  79.5785
 59.5576  6441.21  80.4215
 59.7556  6129.45  78.8724
 59.9536  6254.86  79.5723
 60.1516  6316.36  80.8304
 60.1996  0.0000000E+00  0.0000000E+00