Folder: echemistpy/docs/examples/opeando_xrd/IS17_D/Data/IS17_D (part 74)

File: 17_Db_f00035.xye
# /beamlines/bl04/projects/cycle2025-II/20250340211-lsimonelli/DATA/IS17_D/17_Db_f00035.xye : mythproc.py merge -s 0.006 -l 0.5 -f /beamlines/bl04/inhouse/ff/FlatField/ff_20Nov2024rod8mm60s_17keV.raw -b True -c true -o xye /beamlines/bl04/projects/cycle2025-II/20250340211-lsimonelli/DATA/IS17_D/17_Db_00035.dat
# IsMon = [6766478, 6765371, 6765831]  IsPos = [-1.5000, -2.4885, -3.4988]
# Wave = 0.4962  CalPath /beamlines/bl04/projects/cycle2025-II/20250340211-lsimonelli/DATA/Align/Si_Pos1_25keV_f00001.cal
# Date = 2025-09-24_03:27:23 Dt = 4.8000  Bin = 0.0060  <imon> = 6765893 +/- 454 (Min/Max) 6765371 / 6766478
# icurr 250.7291  mocoIn 1.7102E-05  mocoOut 0.8027  i15 7.08635e+06  imon 6.76589e+06  i7 5.6667  iEMpd_timer 4.8000  iEMpd_1 3.5060E-08  iEMpd_2 7.7228E-08  iEMpd_3 1.6104E-08  iEMpd_4 4.8741E-08  iEMhp_timer 4.8000  iEMhp_1 4.8992E-06  iEMhp_2 -2.5812E-08  iEMhp_3 -2.3458E-08  iEMhp_4 -2.1450E-08
#      9776
 1.7416  70672.3  265.907
 1.9396  48857.7  221.379
 2.1376  35460.5  188.595
 2.3356  31715  177.982
 2.5336  29473.1  172.18
 2.7316  27040.4  165.045
 2.9296  25966  161.895
 3.1276  25430.5  159.749
 3.3256  24636.6  156.899
 3.5236  26206.5  161.76
 3.7216  23807.3  155.292
 3.9196  23441.8  153.303
 4.1176  23377.8  152.877
 4.3156  24215.3  155.769
 4.5136  26594.8  162.213
 4.7116  27623.3  166.46
 4.9096  26871.3  163.61
 5.1076  26660.5  163.547
 5.3056  26717  163.45
 5.5036  26343.7  162.298
 5.7016  26829.3  163.664
 5.8996  27241.6  164.152
 6.0976  27878.2  167.449
 6.2956  28213.4  167.813
 6.4936  29029  169.425
 6.6916  29390  171.443
 6.8896  29939.9  172.902
 7.0876  31204.7  177.169
 7.2856  30767.6  175.069
 7.4836  31102.6  175.373
 7.6816  31778.1  177.777
 7.8796  32431.5  179.616
 8.0776  33906.8  184.62
 8.2756  35445  187.405
 8.4736  36119.8  188.988
 8.6716  34956.8  186.526
 8.8696  35943.7  189.63
 9.0676  35151.5  186.858
 9.2656  34037.3  184.552
 9.4636  33059  180.384
 9.6616  32501.4  179.571
 9.8596  31797.8  177.075
 10.0576  29720.4  171.846
 10.2556  28878.1  169.835
 10.4536  27946.9  166.685
 10.6516  27334.8  165.047
 10.8496  26133  160.809
 11.0476  25406.6  158.529
 11.2456  24761.8  157.071
 11.4436  24764.8  156.275
 11.6416  25483.6  158.861
 11.8396  23875.5  153.964
 12.0376  23144.3  151.235
 12.2356  22996.3  151.202
 12.4336  22959.2  150.603
 12.6316  22877.1  150.586
 12.8296  22914.4  150.336
 13.0276  23328.5  151.895
 13.2256  23551.6  152.973
 13.4236  23420.1  152.325
 13.6216  23708  153.244
 13.8196  25876  159.562
 14.0176  22710.5  150.072
 14.2156  22400.9  148.093
 14.4136  21412.7  146.15
 14.6116  21047.1  144.102
 14.8096  20561.1  142.407
 15.0076  19468.2  142.385
 15.2056  18498.6  134.716
 15.4036  17631.2  132.329
 15.6016  17460.7  130.797
 15.7996  17060.2  129.553
 15.9976  16797.3  131.392
 16.1956  16277.4  127.272
 16.3936  16098.7  125.776
 16.5916  15892  125.592
 16.7896  15923.8  125.772
 16.9876  15576.9  125.832
 17.1856  15381.9  123.453
 17.3836  14941.9  121.583
 17.5816  14549  120.434
 17.7796  14392.5  119.723
 17.9776  14033.7  118.978
 18.1756  14075.2  117.933
 18.3736  13805  117.262
 18.5716  13605.3  116.169
 18.7696  13683  116.076
 18.9676  13589.4  115.483
 19.1656  13298.1  114.813
 19.3636  13376.7  115.341
 19.5616  13088.3  114.243
 19.7596  13481.6  115.37
 19.9576  13538.9  115.656
 20.1556  14180.7  118.891
 20.3536  13285.2  114.476
 20.5516  12875.2  113.118
 20.7496  12782.2  112.565
 20.9476  12655  111.854
 21.1456  12516.8  111.566
 21.3436  12352.3  110.78
 21.5416  12280.7  110.473
 21.7396  12143.5  109.698
 21.9376  12069.8  109.145
 22.1356  12254.3  110.242
 22.3336  11874.3  108.638
 22.5316  11874.5  108.747
 22.7296  11887.1  108.186
 22.9276  11694.3  107.953
 23.1256  11856.4  108.191
 23.3236  12236.1  110.467
 23.5216  12056  109.286
 23.7196  12079.6  109.567
 23.9176  12099.4  109.198
 24.1156  11903.8  108.759
 24.3136  11542.1  107.89
 24.5116  11581.8  107.596
 24.7096  11246.6  105.854
 24.9076  11186.4  105.601
 25.1056  10801.5  103.958
 25.3036  10567.6  102.615
 25.5016  10711.8  103.35
 25.6996  10496.2  101.893
 25.8976  10646.6  103.04
 26.0956  10438  102.041
 26.2936  10399.3  101.525
 26.4916  10824.2  103.435
 26.6896  10423.9  101.805
 26.8876  10352.9  101.31
 27.0856  10088.4  100.032
 27.2836  10024.6  99.6393
 27.4816  9919.64  99.0571
 27.6796  9888.54  99.2595
 27.8776  10036.2  99.8602
 28.0756  9670.55  98.3093
 28.2736  9716.71  98.1397
 28.4716  9469.58  96.9336
 28.6696  9526.05  97.0701
 28.8676  9308.06  96.2953
 29.0656  9239.05  95.9092
 29.2636  9419.22  96.5468
 29.4616  8983.82  94.5604
 29.6596  9035.19  94.4126
 29.8576  8860.63  94.1555
 30.0556  8967.24  94.5988
 30.2536  9116.4  95.1784
 30.4516  9150.84  95.0034
 30.6496  9101.3  94.4832
 30.8476  9137.51  95.112
 31.0456  9093  94.8409
 31.2436  9091.88  94.1096
 31.4416  8933.45  93.471
 31.6396  8942.22  93.5599
 31.8376  8988.77  93.3217
 32.0356  8851.36  93.1644
 32.2336  8906.4  92.8811
 32.4316  8529.26  91.2922
 32.6296  8540.39  91.1197
 32.8276  8693.98  91.7935
 33.0256  8396.45  90.2722
 33.2236  8483.04  90.8679
 33.4216  8513.32  90.7332
 33.6196  8520.36  91.0555
 33.8176  8553.71  91.3936
 34.0156  8421.63  90.3283
 34.2136  8468.3  90.5965
 34.4116  8181.72  89.2133
 34.6096  8324.24  89.8686
 34.8076  8208.79  89.651
 35.0056  8156.07  89.0336
 35.2036  8397.42  90.5661
 35.4016  8083.48  88.7745
 35.5996  8087.99  88.832
 35.7976  8065.61  88.9761
 35.9956  8284.64  89.8296
 36.1936  8159.14  88.9992
 36.3916  7919.21  87.877
 36.5896  8021.76  89.8725
 36.7876  7773.65  87.4324
 36.9856  7630  86.6467
 37.1836  7688.31  86.1083
 37.3816  7772.36  86.9343
 37.5796  7756.39  88.5279
 37.7776  7879.2  87.6083
 37.9756  7861.96  87.4057
 38.1736  7890.26  87.7467
 38.3716  7818.65  87.6094
 38.5696  7604.12  86.7741
 38.7676  7621.59  86.3953
 38.9656  7627.65  86.0691
 39.1636  7696.76  86.6962
 39.3616  7615.78  86.2042
 39.5596  7616.19  87.027
 39.7576  7504.15  85.7864
 39.9556  7609.75  86.0377
 40.1536  7751.89  87.0264
 40.3516  7706.13  86.7889
 40.5496  7671.33  86.6313
 40.7476  7738.59  87.2267
 40.9456  7673.75  86.6183
 41.1436  7925.02  87.7407
 41.3416  7582.09  86.1554
 41.5396  7589.49  86.004
 41.7376  7515.1  85.8466
 41.9356  7558.85  85.9466
 42.1336  7746.83  87.1467
 42.3316  7525.89  86.0985
 42.5296  7609.62  86.1022
 42.7276  7557.12  86.0434
 42.9256  7499.29  85.5741
 43.1236  7476.87  85.5632
 43.3216  7543.05  85.791
 43.5196  7478.14  85.367
 43.7176  7376.29  85.1791
 43.9156  7374.33  85.0981
 44.1136  7285.66  84.1467
 44.3116  7360.33  84.5927
 44.5096  7255.16  84.2862
 44.7076  7344  84.7296
 44.9056  7478.46  85.3691
 45.1036  7359.75  84.3158
 45.3016  7339.86  84.6915
 45.4996  7387.65  84.9126
 45.6976  7228.63  84.1704
 45.8956  7387.22  84.903
 46.0936  7335.17  84.3652
 46.2916  7259.51  84.1457
 46.4896  7334.11  84.5809
 46.6876  7158.26  84.2933
 46.8856  7135.6  83.4224
 47.0836  7233.7  84.2415
 47.2816  7084.51  83.2614
 47.4796  7214.91  84.1296
 47.6776  7158.6  84.729
 47.8756  7095.76  83.5507
 48.0736  7168.39  84.4324
 48.2716  7000.76  83.2499
 48.4696  7269.34  84.4219
 48.6676  7134.45  84.2326
 48.8656  7151.55  84.0544
 49.0636  7174.81  84.1319
 49.2616  7055.06  83.4745
 49.4596  7167.48  83.6891
 49.6576  7090.69  83.471
 49.8556  7055.52  83.282
 50.0536  7036.61  83.6194
 50.2516  7065.54  83.9019
 50.4496  7015.46  83.2804
 50.6476  7084.67  83.3695
 50.8456  7065.9  83.3408
 51.0436  6865.14  82.6018
 51.2416  6865.18  82.2742
 51.4396  6733.57  81.8834
 51.6376  6723.78  81.644
 51.8356  6807.63  81.7764
 52.0336  6839.47  82.4657
 52.2316  6726.09  82.1385
 52.4296  6728.22  81.8611
 52.6276  6664.87  81.5874
 52.8256  6885.32  82.4785
 53.0236  6820.46  82.7313
 53.2216  6688.5  81.9439
 53.4196  6688.45  81.8588
 53.6176  6793.71  83.0131
 53.8156  6726.64  82.2744
 54.0136  6463.96  80.8204
 54.2116  6562.16  81.0543
 54.4096  6511.74  80.8273
 54.6076  6442.67  80.7401
 54.8056  6312.61  79.7083
 55.0036  6480.36  81.0238
 55.2016  6332.8  79.6707
 55.3996  6201.13  78.901
 55.5976  6220.83  79.2316
 55.7956  6161.09  78.6438
 55.9936  6315.37  79.7528
 56.1916  6124.74  78.5728
 56.3896  6070.82  78.2049
 56.5876  6125.77  79.1118
 56.7856  5991.7  77.7496
 56.9836  6191.73  78.803
 57.1816  6195.11  79.1948
 57.3796  6067.15  78.1874
 57.5776  6076.3  78.1215
 57.7756  5987.55  78.2282
 57.9736  5917.12  77.4321
 58.1716  5924.5  77.7548
 58.3696  5665.06  75.8033
 58.5676  5773.48  76.0053
 58.7656  5708.77  76.2377
 58.9636  5783.52  76.76
 59.1616  5718.31  76.4553
 59.3596  5722.6  75.7668
 59.5576  5817.32  76.4468
 59.7556  5602.7  75.4262
 59.9536  5879.84  77.1694
 60.1516  5701.11  76.8122
 60.1996  0.0000000E+00  0.0000000E+00

File: 17_Db_f00036.xye
# /beamlines/bl04/projects/cycle2025-II/20250340211-lsimonelli/DATA/IS17_D/17_Db_f00036.xye : mythproc.py merge -s 0.006 -l 0.5 -f /beamlines/bl04/inhouse/ff/FlatField/ff_20Nov2024rod8mm60s_17keV.raw -b True -c true -o xye /beamlines/bl04/projects/cycle2025-II/20250340211-lsimonelli/DATA/IS17_D/17_Db_00036.dat
# IsMon = [6774707, 6774267, 6775518]  IsPos = [-1.5000, -2.4885, -3.4988]
# Wave = 0.4962  CalPath /beamlines/bl04/projects/cycle2025-II/20250340211-lsimonelli/DATA/Align/Si_Pos1_25keV_f00001.cal
# Date = 2025-09-24_03:43:56 Dt = 4.8000  Bin = 0.0060  <imon> = 6774831 +/- 518 (Min/Max) 6774267 / 6775518
# icurr 251.6942  mocoIn 1.7180E-05  mocoOut 0.8057  i15 7.09414e+06  imon 6.77483e+06  i7 4.0000  iEMpd_timer 4.8000  iEMpd_1 3.4571E-08  iEMpd_2 7.7760E-08  iEMpd_3 1.6815E-08  iEMpd_4 4.8790E-08  iEMhp_timer 4.8000  iEMhp_1 4.9193E-06  iEMhp_2 -2.6118E-08  iEMhp_3 -2.4061E-08  iEMhp_4 -2.1387E-08
#      9776
 1.7416  71567.2  267.6
 1.9396  49114.1  221.975
 2.1376  35866.1  189.679
 2.3356  31741.3  178.065
 2.5336  29871.8  173.35
 2.7316  27331.8  165.937
 2.9296  26169.9  162.53
 3.1276  25570.3  160.184
 3.3256  24674.1  157.025
 3.5236  26496.7  162.666
 3.7216  23888.6  155.559
 3.9196  23597.1  153.805
 4.1176  23475.9  153.196
 4.3156  24392.9  156.336
 4.5136  26860.4  163.024
 4.7116  27743.7  166.817
 4.9096  27073.4  164.228
 5.1076  26812.6  164.011
 5.3056  26733.3  163.492
 5.5036  26676.5  163.32
 5.7016  26689.3  163.234
 5.8996  27375.5  164.554
 6.0976  28225.4  168.493
 6.2956  28250.9  167.924
 6.4936  28898.8  169.03
 6.6916  29397.9  171.47
 6.8896  30143.2  173.489
 7.0876  31313.1  177.475
 7.2856  30923.8  175.513
 7.4836  31353.3  176.078
 7.6816  31853.8  177.984
 7.8796  32587.4  180.044
 8.0776  33962.8  184.767
 8.2756  35734.7  188.158
 8.4736  36216.5  189.237
 8.6716  35299.8  187.443
 8.8696  36027.6  189.85
 9.0676  35009.6  186.49
 9.2656  34272.4  185.191
 9.4636  33139.4  180.603
 9.6616  32325.9  179.08
 9.8596  31710.6  176.828
 10.0576  29748.7  171.933
 10.2556  28962.1  170.083
 10.4536  28155.6  167.305
 10.6516  27254.5  164.81
 10.8496  26284.2  161.271
 11.0476  25124.1  157.645
 11.2456  24810.2  157.229
 11.4436  24950.2  156.861
 11.6416  25838.8  159.963
 11.8396  23902.7  154.056
 12.0376  23267.7  151.634
 12.2356  22932.9  150.992
 12.4336  22954.6  150.585
 12.6316  23096.5  151.311
 12.8296  23143.8  151.08
 13.0276  23215  151.525
 13.2256  23483.9  152.756
 13.4236  23621.1  152.975
 13.6216  23941.2  154.002
 13.8196  25969.6  159.836
 14.0176  22632.9  149.817
 14.2156  22392  148.055
 14.4136  21455.8  146.29
 14.6116  21116.2  144.34
 14.8096  20458.7  142.059
 15.0076  19518  142.576
 15.2056  18807  135.835
 15.4036  17662.9  132.442
 15.6016  17577.8  131.231
 15.7996  16951.6  129.137
 15.9976  16814.9  131.448
 16.1956  16301  127.363
 16.3936  16226.6  126.271
 16.5916  15877.7  125.528
 16.7896  15632.5  124.622
 16.9876  15709.9  126.352
 17.1856  15384.6  123.463
 17.3836  15208.6  122.665
 17.5816  14555.6  120.471
 17.7796  14407.3  119.78
 17.9776  14022.1  118.929
 18.1756  13973  117.505
 18.3736  13882.5  117.594
 18.5716  13655.6  116.384
 18.7696  13612.8  115.771
 18.9676  13530.1  115.234
 19.1656  13248.6  114.598
 19.3636  13214  114.635
 19.5616  13277.3  115.08
 19.7596  13395.2  115.002
 19.9576  13735.4  116.502
 20.1556  14260.8  119.226
 20.3536  13380.2  114.878
 20.5516  12910.3  113.281
 20.7496  12757.6  112.461
 20.9476  12726.9  112.17
 21.1456  12571.4  111.804
 21.3436  12441.5  111.17
 21.5416  12282.8  110.482
 21.7396  11990.8  109.004
 21.9376  12104.4  109.3
 22.1356  12248.7  110.218
 22.3336  11742  108.028
 22.5316  12024  109.427
 22.7296  11947.6  108.461
 22.9276  11702.6  107.988
 23.1256  11950.3  108.611
 23.3236  12214.2  110.368
 23.5216  12230.5  110.081
 23.7196  12151.4  109.891
 23.9176  12221.6  109.751
 24.1156  11879.8  108.658
 24.3136  11516  107.761
 24.5116  11656.5  107.95
 24.7096  11325.8  106.22
 24.9076  11099.5  105.192
 25.1056  10787.2  103.889
 25.3036  10599.1  102.76
 25.5016  10710.1  103.333
 25.6996  10565.6  102.233
 25.8976  10659.4  103.109
 26.0956  10495.5  102.327
 26.2936  10444  101.744
 26.4916  10877.3  103.691
 26.6896  10455  101.95
 26.8876  10363.9  101.373
 27.0856  10145.8  100.313
 27.2836  10026  99.6532
 27.4816  9920.77  99.0626
 27.6796  10003.7  99.8412
 27.8776  10020  99.7799
 28.0756  9661.27  98.2652
 28.2736  9731.74  98.2101
 28.4716  9498.72  97.0805
 28.6696  9414.57  96.4989
 28.8676  9365.57  96.5866
 29.0656  9388.02  96.6805
 29.2636  9500.41  96.9757
 29.4616  9007.14  94.6828
 29.6596  8990.19  94.1729
 29.8576  8788.75  93.7707
 30.0556  8866.46  94.0617
 30.2536  9034.75  94.7444
 30.4516  9185.49  95.1897
 30.6496  9103.91  94.4944
 30.8476  9130.29  95.0721
 31.0456  9169.08  95.24
 31.2436  9175.31  94.5412
 31.4416  8977.95  93.7067
 31.6396  9039.25  94.0695
 31.8376  9004.44  93.4186
 32.0356  8958.91  93.7259
 32.2336  8940.66  93.064
 32.4316  8695.21  92.175
 32.6296  8620.55  91.547
 32.8276  8638.24  91.4941
 33.0256  8557.92  91.1383
 33.2236  8539.28  91.1664
 33.4216  8535.03  90.8446
 33.6196  8510.24  91.0028
 33.8176  8493.35  91.0782
 34.0156  8462.5  90.5463
 34.2136  8425.97  90.3669
 34.4116  8266.07  89.6747
 34.6096  8309.32  89.784
 34.8076  8313.04  90.2195
 35.0056  8151.15  89.0131
 35.2036  8457.01  90.8907
 35.4016  8177.55  89.2887
 35.5996  8193.4  89.4127
 35.7976  8076.98  89.0422
 35.9956  8190.11  89.3143
 36.1936  8165.65  89.0311
 36.3916  7953.79  88.0671
 36.5896  8099.62  90.3085
 36.7876  7767.04  87.3932
 36.9856  7607.45  86.5176
 37.1836  7748  86.4401
 37.3816  7732.94  86.7061
 37.5796  7874.4  89.1957
 37.7776  7877.3  87.604
 37.9756  7907.07  87.6524
 38.1736  7788.33  87.1777
 38.3716  7816.62  87.5981
 38.5696  7563.11  86.5491
 38.7676  7680.32  86.7171
 38.9656  7819.67  87.1422
 39.1636  7694.36  86.6859
 39.3616  7628.01  86.272
 39.5596  7544.7  86.6074
 39.7576  7506.63  85.8029
 39.9556  7603.73  86.0042
 40.1536  7790.19  87.2438
 40.3516  7693.49  86.7144
 40.5496  7697.44  86.7731
 40.7476  7682.63  86.91
 40.9456  7822.98  87.4539
 41.1436  7757.97  86.8115
 41.3416  7590.42  86.197
 41.5396  7620.08  86.1685
 41.7376  7598.02  86.3157
 41.9356  7557.27  85.9238
 42.1336  7814.94  87.5319
 42.3316  7548.77  86.2329
 42.5296  7648.52  86.3209
 42.7276  7669.61  86.6802
 42.9256  7650.35  86.4392
 43.1236  7552.78  85.9963
 43.3216  7534.16  85.739
 43.5196  7553.98  85.8062
 43.7176  7483.61  85.802
 43.9156  7164.04  83.8729
 44.1136  7209.76  83.706
 44.3116  7323.5  84.3783
 44.5096  7361.67  84.902
 44.7076  7374.31  84.9052
 44.9056  7634.54  86.2531
 45.1036  7443.07  84.7916
 45.3016  7434.13  85.239
 45.4996  7316.93  84.5061
 45.6976  7268.36  84.3979
 45.8956  7314.37  84.4841
 46.0936  7420.03  84.8426
 46.2916  7396.27  84.9374
 46.4896  7254.86  84.1538
 46.6876  7278.02  85.0004
 46.8856  7190.71  83.7462
 47.0836  7144.05  83.7259
 47.2816  7095.56  83.3262
 47.4796  7231.57  84.224
 47.6776  7064.06  84.188
 47.8756  7106.52  83.6128
 48.0736  7122.7  84.1597
 48.2716  7014.19  83.3391
 48.4696  7314.39  84.6899
 48.6676  7162.41  84.3992
 48.8656  7145.01  84.0149
 49.0636  7163.42  84.0664
 49.2616  7013.73  83.2221
 49.4596  7163.93  83.6647
 49.6576  7117.85  83.6245
 49.8556  7097.79  83.5309
 50.0536  7046.89  83.6764
 50.2516  7055.95  83.8372
 50.4496  7106.11  83.8174
 50.6476  7119.43  83.5728
 50.8456  6961.51  82.7114
 51.0436  6832.03  82.4007
 51.2416  6751.42  81.5852
 51.4396  6734.79  81.8862
 51.6376  6749.64  81.8036
 51.8356  6798.68  81.7203
 52.0336  6694.28  81.5863
 52.2316  6801.59  82.6083
 52.4296  6783.51  82.1963
 52.6276  6785.3  82.3182
 52.8256  6857.51  82.3103
 53.0236  6865.28  83.0033
 53.2216  6838.06  82.8528
 53.4196  6741.37  82.1914
 53.6176  6782.64  82.9511
 53.8156  6788.38  82.6493
 54.0136  6419.88  80.5423
 54.2116  6651.41  81.6106
 54.4096  6392.6  80.0805
 54.6076  6416.83  80.5685
 54.8056  6301.28  79.61
 55.0036  6443.45  80.7826
 55.2016  6347.72  79.7664
 55.3996  6212.66  78.9773
 55.5976  6301.43  79.7344
 55.7956  6243.53  79.1753
 55.9936  6383.71  80.1988
 56.1916  6174.53  78.8975
 56.3896  6136.14  78.6301
 56.5876  6115.84  79.052
 56.7856  6123.6  78.6119
 56.9836  6151.36  78.5543
 57.1816  6203.82  79.2473
 57.3796  6011.44  77.8311
 57.5776  6066.75  78.0664
 57.7756  5971.08  78.1244
 57.9736  5939.05  77.5826
 58.1716  5896.93  77.5699
 58.3696  5727.72  76.2143
 58.5676  5715.58  75.6232
 58.7656  5716.98  76.2908
 58.9636  5808.65  76.931
 59.1616  5828.77  77.1925
 59.3596  5770.21  76.0769
 59.5576  5940.1  77.245
 59.7556  5677.9  75.9265
 59.9536  5816.99  76.7516
 60.1516  5762.32  77.2191
 60.1996  0.0000000E+00  0.0000000E+00