Folder: echemistpy/docs/examples/opeando_xrd/IS17_D/Data/IS17_D (part 82)

File: 17_Db_f00054.xye
# /beamlines/bl04/projects/cycle2025-II/20250340211-lsimonelli/DATA/IS17_D/17_Db_f00054.xye : mythproc.py merge -s 0.006 -l 0.5 -f /beamlines/bl04/inhouse/ff/FlatField/ff_20Nov2024rod8mm60s_17keV.raw -b True -c true -o xye /beamlines/bl04/projects/cycle2025-II/20250340211-lsimonelli/DATA/IS17_D/17_Db_00054.dat
# IsMon = [6774160, 6779345, 6778109]  IsPos = [-1.4999, -2.4884, -3.4988]
# Wave = 0.4962  CalPath /beamlines/bl04/projects/cycle2025-II/20250340211-lsimonelli/DATA/Align/Si_Pos1_25keV_f00001.cal
# Date = 2025-09-24_08:43:41 Dt = 4.8000  Bin = 0.0060  <imon> = 6777205 +/- 2211 (Min/Max) 6774160 / 6779345
# icurr 251.7312  mocoIn 1.7185E-05  mocoOut 0.8062  i15 7.09802e+06  imon 6.7772e+06  i7 4.6667  iEMpd_timer 4.8000  iEMpd_1 3.5929E-08  iEMpd_2 7.7929E-08  iEMpd_3 1.7519E-08  iEMpd_4 4.7625E-08  iEMhp_timer 4.8000  iEMhp_1 4.9201E-06  iEMhp_2 -2.6368E-08  iEMhp_3 -2.4314E-08  iEMhp_4 -2.1239E-08
#      9776
 1.7416  70621.2  265.882
 1.9396  49387.9  222.637
 2.1376  36027.1  190.147
 2.3356  32400  179.942
 2.5336  30339.2  174.738
 2.7316  27751.9  167.209
 2.9296  26279.6  162.871
 3.1276  26025.7  161.617
 3.3256  25160.1  158.547
 3.5236  26674.1  163.052
 3.7216  24407.4  157.237
 3.9196  24112.4  155.477
 4.1176  24101.3  155.237
 4.3156  25041.5  158.398
 4.5136  27315.5  164.393
 4.7116  28261.1  168.369
 4.9096  27593.2  165.793
 5.1076  27442.6  165.944
 5.3056  27196.9  164.902
 5.5036  27104.1  164.532
 5.7016  27334.2  165.196
 5.8996  28054.7  166.583
 6.0976  28817.4  170.253
 6.2956  29013.2  170.167
 6.4936  29827.7  171.742
 6.6916  30215.2  173.844
 6.8896  31039.5  176.047
 7.0876  31990.6  179.48
 7.2856  31929.1  178.347
 7.4836  32218.3  178.494
 7.6816  33065.9  181.335
 7.8796  33924.9  183.682
 8.0776  35455.9  188.761
 8.2756  37206.9  191.983
 8.4736  38139.5  194.173
 8.6716  37135.4  192.229
 8.8696  37674.8  194.161
 9.0676  36675.3  190.899
 9.2656  36051.8  189.968
 9.4636  34905.7  185.365
 9.6616  34344.8  184.601
 9.8596  33585.7  181.996
 10.0576  31365.2  176.533
 10.2556  30800.7  175.406
 10.4536  29609.4  171.563
 10.6516  28751.2  169.281
 10.8496  27569.1  165.181
 11.0476  26805.1  162.887
 11.2456  26072.7  161.171
 11.4436  26108.7  160.464
 11.6416  26833.1  163.016
 11.8396  25102.3  157.883
 12.0376  24513.8  155.664
 12.2356  24129.2  154.843
 12.4336  24111.5  154.34
 12.6316  24156.4  154.751
 12.8296  24136.8  154.285
 13.0276  24614.6  156.022
 13.2256  24808.8  157.007
 13.4236  24513.6  155.837
 13.6216  24976.6  157.317
 13.8196  26781.7  162.351
 14.0176  23936  154.06
 14.2156  23442.7  151.505
 14.4136  22504.8  149.826
 14.6116  22159  147.858
 14.8096  21334.2  145.067
 15.0076  20446.2  145.927
 15.2056  19711.3  139.047
 15.4036  18494.1  135.511
 15.6016  18306.6  133.909
 15.7996  17704.7  131.964
 15.9976  17435.8  133.873
 16.1956  17104.9  130.489
 16.3936  16659.4  127.948
 16.5916  16570.9  128.264
 16.7896  16583.6  128.363
 16.9876  16527.5  129.613
 17.1856  16150.1  126.49
 17.3836  15847.7  125.217
 17.5816  15272.8  123.406
 17.7796  15191.5  123.01
 17.9776  14681.6  121.702
 18.1756  14760.2  120.768
 18.3736  14340  119.509
 18.5716  14369.1  119.391
 18.7696  14399.6  119.084
 18.9676  14134.3  117.785
 19.1656  13884.9  117.317
 19.3636  13888.9  117.522
 19.5616  13733.5  117.039
 19.7596  14076.2  117.892
 19.9576  14476.9  119.595
 20.1556  14711.9  121.1
 20.3536  13824.3  116.777
 20.5516  13413  115.465
 20.7496  13317.5  114.987
 20.9476  13231.8  114.382
 21.1456  13135.1  114.284
 21.3436  12967.1  113.5
 21.5416  12794.1  112.759
 21.7396  12817.2  112.701
 21.9376  12719.3  112.042
 22.1356  12805.5  112.538
 22.3336  12483.5  111.392
 22.5316  12290.9  110.617
 22.7296  12500  110.927
 22.9276  12388.4  111.094
 23.1256  12495.5  111.058
 23.3236  12747.7  112.764
 23.5216  12634.5  111.888
 23.7196  12598.1  111.688
 23.9176  12569.5  111.313
 24.1156  12430.1  111.146
 24.3136  11922  109.658
 24.5116  12070.1  109.859
 24.7096  11692.2  107.919
 24.9076  11732.5  108.156
 25.1056  11209.3  106.171
 25.3036  11035.1  104.856
 25.5016  10984.8  104.651
 25.6996  11071.9  104.656
 25.8976  11081.4  105.139
 26.0956  10924.3  104.397
 26.2936  10944.4  104.148
 26.4916  11147.1  104.974
 26.6896  10783.1  103.543
 26.8876  10696.9  102.99
 27.0856  10532.3  102.253
 27.2836  10416.5  101.578
 27.4816  10314.4  101.018
 27.6796  10290.6  101.268
 27.8776  10502  102.158
 28.0756  10122.4  100.579
 28.2736  10037  99.7401
 28.4716  9926.88  99.2472
 28.6696  9891.89  98.9133
 28.8676  9923.78  99.4289
 29.0656  9692.76  98.2414
 29.2636  9779.62  98.4703
 29.4616  9394.78  96.6874
 29.6596  9596.21  97.2869
 29.8576  9373.54  96.8306
 30.0556  9460.58  97.1595
 30.2536  9585.27  97.587
 30.4516  9542.02  97.0226
 30.6496  9546.4  96.7819
 30.8476  9632.48  97.6597
 31.0456  9556.68  97.2404
 31.2436  9485.93  96.1439
 31.4416  9337.58  95.5662
 31.6396  9367.39  95.7578
 31.8376  9407.5  95.4948
 32.0356  9334.62  95.6853
 32.2336  9306.67  94.9538
 32.4316  8915.39  93.3269
 32.6296  9035.16  93.7886
 32.8276  8998.42  93.3863
 33.0256  8897.32  92.9274
 33.2236  8981.45  93.5053
 33.4216  8901.3  92.7789
 33.6196  8912.78  93.1236
 33.8176  8840.14  92.9198
 34.0156  8787.79  92.2716
 34.2136  8780.26  92.2524
 34.4116  8592.57  91.4279
 34.6096  8721.25  91.9869
 34.8076  8489.91  91.1735
 35.0056  8602.07  91.4431
 35.2036  8787.04  92.6514
 35.4016  8492.66  90.992
 35.5996  8506.41  91.1038
 35.7976  8445.08  91.0464
 35.9956  8424.53  90.5859
 36.1936  8562.69  91.1753
 36.3916  8315.8  90.0526
 36.5896  8214.12  90.4783
 36.7876  8131.83  89.4124
 36.9856  7979.26  88.5943
 37.1836  8131.2  88.5407
 37.3816  8055.61  88.494
 37.5796  8149.32  90.7413
 37.7776  8149.72  89.1219
 37.9756  8200.91  89.2795
 38.1736  8110.59  88.9759
 38.3716  8136.48  89.3829
 38.5696  7964.14  88.8087
 38.7676  7913.99  88.0378
 38.9656  8095.18  88.6719
 39.1636  8095.41  88.9343
 39.3616  8109.41  88.946
 39.5596  7903.15  88.6619
 39.7576  7942.97  88.2625
 39.9556  7863.5  87.4612
 40.1536  8002.88  88.4206
 40.3516  8043.25  88.664
 40.5496  7962.61  88.4708
 40.7476  7997.5  88.6583
 40.9456  8066.27  88.8006
 41.1436  8117.57  88.8102
 41.3416  7913.98  88.0169
 41.5396  7903.19  87.7687
 41.7376  7898  87.9941
 41.9356  7844.27  87.5577
 42.1336  7986.92  88.4981
 42.3316  7913.38  88.2878
 42.5296  7927.78  87.8865
 42.7276  7939.82  88.1974
 42.9256  7856.38  87.6002
 43.1236  7793.33  87.3516
 43.3216  7846.27  87.3966
 43.5196  7755.54  86.9563
 43.7176  7768.39  87.4196
 43.9156  7595.4  86.3544
 44.1136  7653.94  86.2355
 44.3116  7626.14  86.0947
 44.5096  7638.11  86.4701
 44.7076  7587.1  86.1111
 44.9056  7784.7  87.1081
 45.1036  7768.39  86.6364
 45.3016  7592.62  86.1556
 45.4996  7704.68  86.7258
 45.6976  7439.46  85.3887
 45.8956  7605.2  86.15
 46.0936  7665.56  86.5026
 46.2916  7674  86.5071
 46.4896  7556.7  85.8853
 46.6876  7490.25  86.2312
 46.8856  7393.28  84.9255
 47.0836  7531.07  85.9737
 47.2816  7343.69  84.7681
 47.4796  7504.81  85.8043
 47.6776  7422.74  86.2873
 47.8756  7395.34  85.2963
 48.0736  7430.67  85.963
 48.2716  7377.57  85.4586
 48.4696  7559.85  86.0914
 48.6676  7366.61  85.5831
 48.8656  7505.77  86.1096
 49.0636  7513.36  86.1098
 49.2616  7296.88  84.8873
 49.4596  7361.01  84.8121
 49.6576  7397.31  85.2548
 49.8556  7378.86  85.1709
 50.0536  7333.7  85.3672
 50.2516  7373.97  85.7351
 50.4496  7321.24  85.0718
 50.6476  7348.31  84.8967
 50.8456  7278.77  84.583
 51.0436  7131.18  84.177
 51.2416  7003.13  83.0879
 51.4396  7013.57  83.5514
 51.6376  7042.58  83.5466
 51.8356  7135.18  83.7121
 52.0336  7083.18  83.9306
 52.2316  6998.8  83.8057
 52.4296  6953.57  83.2266
 52.6276  7073.28  84.0491
 52.8256  7025.86  83.3243
 53.0236  7160.56  84.7659
 53.2216  7050.72  84.1539
 53.4196  6900.76  83.1576
 53.6176  7043.93  84.5289
 53.8156  6992.51  83.8855
 54.0136  6740.14  82.5254
 54.2116  6849.72  82.8291
 54.4096  6674.74  81.8272
 54.6076  6714.92  82.4223
 54.8056  6564.71  81.2715
 55.0036  6588.68  81.8424
 55.2016  6725.81  82.208
 55.3996  6496.68  80.7696
 55.5976  6561.4  81.3753
 55.7956  6498.7  80.777
 55.9936  6653.93  81.8669
 56.1916  6485.44  80.8685
 56.3896  6335.2  79.8918
 56.5876  6326.06  80.409
 56.7856  6330.18  79.909
 56.9836  6453.95  80.4674
 57.1816  6451.07  80.8028
 57.3796  6243.24  79.3199
 57.5776  6333.69  79.7931
 57.7756  6248.4  79.9129
 57.9736  6184.32  79.1721
 58.1716  6212.53  79.6233
 58.3696  6028.65  78.181
 58.5676  6008.05  77.5268
 58.7656  5995.24  78.1103
 58.9636  6054.2  78.5265
 59.1616  6052.44  78.6417
 59.3596  5961.98  77.3298
 59.5576  6014.56  77.7264
 59.7556  5995.78  78.0216
 59.9536  5979.7  77.8163
 60.1516  5998.84  78.7867
 60.1996  0.0000000E+00  0.0000000E+00

File: 17_Db_f00056.xye
# /beamlines/bl04/projects/cycle2025-II/20250340211-lsimonelli/DATA/IS17_D/17_Db_f00056.xye : mythproc.py merge -s 0.006 -l 0.5 -f /beamlines/bl04/inhouse/ff/FlatField/ff_20Nov2024rod8mm60s_17keV.raw -b True -c true -o xye /beamlines/bl04/projects/cycle2025-II/20250340211-lsimonelli/DATA/IS17_D/17_Db_00056.dat
# IsMon = [6740912, 6745000, 6746333]  IsPos = [-1.5000, -2.4885, -3.4988]
# Wave = 0.4962  CalPath /beamlines/bl04/projects/cycle2025-II/20250340211-lsimonelli/DATA/Align/Si_Pos1_25keV_f00001.cal
# Date = 2025-09-24_09:16:42 Dt = 4.8000  Bin = 0.0060  <imon> = 6744082 +/- 2306 (Min/Max) 6740912 / 6746333
# icurr 248.6741  mocoIn 1.6977E-05  mocoOut 0.7965  i15 7.06645e+06  imon 6.74408e+06  i7 5.6667  iEMpd_timer 4.8000  iEMpd_1 3.5489E-08  iEMpd_2 7.9487E-08  iEMpd_3 1.8010E-08  iEMpd_4 4.7792E-08  iEMhp_timer 4.8000  iEMhp_1 4.8622E-06  iEMhp_2 -2.4853E-08  iEMhp_3 -2.5449E-08  iEMhp_4 -2.2431E-08
#      9776
 1.7416  70184.7  265.062
 1.9396  48360.8  220.312
 2.1376  35364.4  188.391
 2.3356  32057.1  178.989
 2.5336  29815.7  173.226
 2.7316  27280.8  165.792
 2.9296  25971  161.921
 3.1276  25401.5  159.68
 3.3256  24772.3  157.336
 3.5236  26452.7  162.547
 3.7216  24195.7  156.553
 3.9196  23597.2  153.813
 4.1176  23536.4  153.402
 4.3156  24577.6  156.924
 4.5136  26805.5  162.854
 4.7116  27872.2  167.212
 4.9096  27311.1  164.946
 5.1076  26834.1  164.091
 5.3056  27034.1  164.397
 5.5036  26672.2  163.308
 5.7016  26994.1  164.164
 5.8996  27698.5  165.523
 6.0976  28586.5  169.57
 6.2956  28580.5  168.899
 6.4936  29311.4  170.246
 6.6916  29913.2  172.974
 6.8896  30490.6  174.474
 7.0876  31853.9  179.012
 7.2856  31460.3  177.032
 7.4836  31817.6  177.375
 7.6816  32755.2  180.492
 7.8796  33448.7  182.381
 8.0776  35458.3  188.77
 8.2756  36516.5  190.188
 8.4736  37420  192.334
 8.6716  36505.1  190.592
 8.8696  37105  192.68
 9.0676  36287.2  189.876
 9.2656  35463.1  188.397
 9.4636  34563.9  184.444
 9.6616  33805.9  183.138
 9.8596  33245.6  181.078
 10.0576  30967.7  175.424
 10.2556  30387.8  174.234
 10.4536  29284.4  170.635
 10.6516  28508.8  168.567
 10.8496  27444.6  164.8
 11.0476  26388.4  161.563
 11.2456  25861.2  160.516
 11.4436  26322.4  161.115
 11.6416  26216  161.138
 11.8396  24691.4  156.592
 12.0376  24137.8  154.438
 12.2356  23718.7  153.553
 12.4336  23786.2  153.288
 12.6316  23851.2  153.764
 12.8296  23973  153.768
 13.0276  24155  154.554
 13.2256  24372.7  155.618
 13.4236  24302.2  155.166
 13.6216  24482.3  155.742
 13.8196  26749.1  162.267
 14.0176  23583.5  152.925
 14.2156  23338.2  151.165
 14.4136  22111.6  148.518
 14.6116  21940.5  147.136
 14.8096  21148.6  144.426
 15.0076  20107.2  144.719
 15.2056  19293.3  137.563
 15.4036  18294.5  134.767
 15.6016  17897.7  132.405
 15.7996  17499.7  131.186
 15.9976  17283.9  133.28
 16.1956  16947.8  129.88
 16.3936  16516.3  127.398
 16.5916  16436.1  127.735
 16.7896  16374.8  127.556
 16.9876  16337.5  128.865
 17.1856  15881.9  125.444
 17.3836  15633.6  124.376
 17.5816  15135.5  122.855
 17.7796  14830.1  121.542
 17.9776  14589.5  121.319
 18.1756  14611.4  120.159
 18.3736  14305.5  119.361
 18.5716  14273.5  118.991
 18.7696  14249.9  118.459
 18.9676  14119.6  117.726
 19.1656  13785.1  116.893
 19.3636  13657.1  116.546
 19.5616  13689.6  116.851
 19.7596  14053.3  117.795
 19.9576  14316.7  118.939
 20.1556  14178.5  118.884
 20.3536  13625.3  115.936
 20.5516  13366.3  115.264
 20.7496  13097.5  113.959
 20.9476  13061.9  113.645
 21.1456  12906.8  113.283
 21.3436  12854.6  113.011
 21.5416  12745.6  112.543
 21.7396  12528.3  111.422
 21.9376  12489.9  111.025
 22.1356  12670.2  112.1
 22.3336  12311.7  110.606
 22.5316  12464.8  111.398
 22.7296  12395.5  110.464
 22.9276  12196.6  110.232
 23.1256  12307.4  110.206
 23.3236  12414.5  111.276
 23.5216  12598.5  111.736
 23.7196  12646.2  112.116
 23.9176  12568.9  111.301
 24.1156  12314.9  110.634
 24.3136  11861.2  109.378
 24.5116  12070.5  109.858
 24.7096  11531.4  107.19
 24.9076  11432.6  106.768
 25.1056  11207  105.893
 25.3036  10933.2  104.372
 25.5016  10921.8  104.355
 25.6996  10968.5  104.165
 25.8976  10840.1  103.984
 26.0956  10767.8  103.643
 26.2936  10863.8  103.761
 26.4916  10931.3  103.944
 26.6896  10701.7  103.162
 26.8876  10657.3  102.796
 27.0856  10460.2  101.851
 27.2836  10312  101.062
 27.4816  10055.5  99.7402
 27.6796  10217.6  100.889
 27.8776  10312.6  101.24
 28.0756  9974.17  99.8427
 28.2736  10081.8  99.9661
 28.4716  9782.3  98.5198
 28.6696  9803.05  98.465
 28.8676  9638.02  97.9849
 29.0656  9591.63  97.723
 29.2636  9764.7  98.3227
 29.4616  9278.65  96.0863
 29.6596  9452.27  96.5533
 29.8576  9241.92  96.1471
 30.0556  9261.57  96.1259
 30.2536  9417.32  96.7268
 30.4516  9556.44  97.0911
 30.6496  9447.47  96.2787
 30.8476  9511.09  97.04
 31.0456  9432.56  96.6066
 31.2436  9378.7  95.5973
 31.4416  9157.46  94.644
 31.6396  9155.3  94.6752
 31.8376  9381.63  95.3677
 32.0356  9210.58  95.057
 32.2336  9058.53  93.6878
 32.4316  8875.35  93.1121
 32.6296  8939.31  93.2196
 32.8276  8958.28  93.1789
 33.0256  8754.11  92.1706
 33.2236  8828.5  92.7138
 33.4216  8832.62  92.4146
 33.6196  8730.14  92.1718
 33.8176  8790.08  92.6564
 34.0156  8733.28  91.9803
 34.2136  8701.37  91.8456
 34.4116  8403.44  90.4123
 34.6096  8545.51  91.0528
 34.8076  8485.43  91.1506
 35.0056  8487.06  90.8221
 35.2036  8532.53  91.3041
 35.4016  8428.24  90.646
 35.5996  8322.95  90.1162
 35.7976  8252.33  90.0016
 35.9956  8469.26  90.8268
 36.1936  8403.99  90.3329
 36.3916  8300.47  89.9671
 36.5896  8259.24  91.2
 36.7876  7926.35  88.2682
 36.9856  7975.51  88.576
 37.1836  7930.07  87.4388
 37.3816  8039.35  88.4011
 37.5796  8045.61  90.1618
 37.7776  8132.6  89.0156
 37.9756  8128.99  88.8874
 38.1736  8172.69  89.3171
 38.3716  8034.04  88.8102
 38.5696  7953.92  88.7302
 38.7676  7778.62  87.2809
 38.9656  7836.94  87.2528
 39.1636  7951.53  88.1268
 39.3616  7881.37  87.6967
 39.5596  7775.42  87.9317
 39.7576  7752.41  87.1975
 39.9556  7827.14  87.2564
 40.1536  7919.55  87.9633
 40.3516  7845  87.5525
 40.5496  7950.08  88.1856
 40.7476  7925.13  88.2567
 40.9456  8035.62  88.6364
 41.1436  8014.62  88.2442
 41.3416  7833.98  87.5714
 41.5396  7700.81  86.6398
 41.7376  7909.2  88.0635
 41.9356  7745  87.0013
 42.1336  7962.77  88.3607
 42.3316  7798.67  87.6465
 42.5296  7689.47  86.5424
 42.7276  7877.04  87.8427
 42.9256  7743.26  86.9639
 43.1236  7782.83  87.2931
 43.3216  7768.25  87.0643
 43.5196  7674.03  86.4932
 43.7176  7718.93  87.1475
 43.9156  7460.61  85.5837
 44.1136  7427.86  84.9534
 44.3116  7600.72  85.947
 44.5096  7588.6  86.1906
 44.7076  7464.03  85.4083
 44.9056  7654.61  86.3731
 45.1036  7582.82  85.5854
 45.3016  7688.27  86.6879
 45.4996  7375.68  84.8482
 45.6976  7350.44  84.8759
 45.8956  7580.05  86.0094
 46.0936  7495.62  85.2845
 46.2916  7454.08  85.273
 46.4896  7569.2  85.9575
 46.6876  7444.66  85.9707
 46.8856  7396.24  84.9412
 47.0836  7429.77  85.3862
 47.2816  7266.21  84.3172
 47.4796  7491.79  85.7271
 47.6776  7298.82  85.5707
 47.8756  7267.62  84.5493
 48.0736  7286.83  85.1246
 48.2716  7260.62  84.7812
 48.4696  7289.33  84.5426
 48.6676  7376.96  85.6494
 48.8656  7371.26  85.3294
 49.0636  7311.42  84.943
 49.2616  7127.34  83.8931
 49.4596  7318.28  84.5762
 49.6576  7175.53  83.9579
 49.8556  7282.75  84.6142
 50.0536  7221.42  84.7051
 50.2516  7200.65  84.6938
 50.4496  7230.31  84.546
 50.6476  7293.16  84.5796
 50.8456  7239.39  84.3504
 51.0436  7060.41  83.7566
 51.2416  6979.3  82.9448
 51.4396  6873.46  82.7178
 51.6376  6968.66  83.1107
 51.8356  7012.88  82.992
 52.0336  6968.85  83.2553
 52.2316  6918.1  83.3131
 52.4296  6949.62  83.198
 52.6276  6853.76  82.7294
 52.8256  6987.89  83.0939
 53.0236  6962.65  83.5926
 53.2216  6873.51  83.0696
 53.4196  6806.12  82.5897
 53.6176  6966.06  84.0679
 53.8156  6768.69  82.5363
 54.0136  6608.6  81.7192
 54.2116  6733.99  82.1265
 54.4096  6561.74  81.1309
 54.6076  6728.54  82.4968
 54.8056  6559.94  81.2404
 55.0036  6615.63  81.85
 55.2016  6524.29  80.8534
 55.3996  6322.41  79.6684
 55.5976  6462.01  80.7258
 55.7956  6448.71  80.457
 55.9936  6581.79  81.4237
 56.1916  6389.86  80.26
 56.3896  6201.41  79.046
 56.5876  6282.82  80.1269
 56.7856  6225.27  79.2594
 56.9836  6403.75  80.1603
 57.1816  6393.9  80.4751
 57.3796  6206.37  79.0908
 57.5776  6214.18  79.0328
 57.7756  6111.79  79.0429
 57.9736  6191.65  79.223
 58.1716  6071.82  78.7136
 58.3696  5866.69  77.1289
 58.5676  5992.63  77.4263
 58.7656  5969.16  77.9464
 58.9636  5891.72  77.4704
 59.1616  5980.97  78.1859
 59.3596  5867.48  76.7059
 59.5576  5886.98  76.8899
 59.7556  5736.64  76.3093
 59.9536  5852.16  76.9743
 60.1516  5749.39  77.1235
 60.1996  0.0000000E+00  0.0000000E+00