Folder: echemistpy/docs/examples/opeando_xrd/IS17_D/Data/IS17_D (part 10)

File: 17_Da_f00028.xye
# /beamlines/bl04/projects/cycle2025-II/20250340211-lsimonelli/DATA/IS17_D/17_Da_f00028.xye : mythproc.py merge -s 0.006 -l 0.5 -f /beamlines/bl04/inhouse/ff/FlatField/ff_20Nov2024rod8mm60s_17keV.raw -b True -c true -o xye /beamlines/bl04/projects/cycle2025-II/20250340211-lsimonelli/DATA/IS17_D/17_Da_00028.dat
# IsMon = [6779836, 6779133, 6783403]  IsPos = [-1.5000, -2.4885, -3.4986]
# Wave = 0.4962  CalPath /beamlines/bl04/projects/cycle2025-II/20250340211-lsimonelli/DATA/Align/Si_Pos1_25keV_f00001.cal
# Date = 2025-09-24_01:20:56 Dt = 4.8000  Bin = 0.0060  <imon> = 6780791 +/- 1869 (Min/Max) 6779133 / 6783403
# icurr 252.4241  mocoIn 1.7211E-05  mocoOut 0.8080  i15 7.09665e+06  imon 6.78079e+06  i7 5.0000  iEMpd_timer 4.8000  iEMpd_1 3.5443E-08  iEMpd_2 7.7931E-08  iEMpd_3 1.6251E-08  iEMpd_4 4.7755E-08  iEMhp_timer 4.8000  iEMhp_1 4.9306E-06  iEMhp_2 -2.5086E-08  iEMhp_3 -2.3445E-08  iEMhp_4 -2.1312E-08
#      9776
 1.7416  70635.4  265.868
 1.9396  45288.2  213.166
 2.1376  31814.9  178.657
 2.3356  28303  168.155
 2.5336  26367.9  162.876
 2.7316  24915.9  158.441
 2.9296  23940.5  155.473
 3.1276  23187.5  152.558
 3.3256  23040.1  151.754
 3.5236  25038.2  158.152
 3.7216  22690.3  151.615
 3.9196  22110  148.913
 4.1176  22216.3  149.041
 4.3156  23544.3  153.587
 4.5136  26138.3  160.824
 4.7116  27248.2  165.333
 4.9096  26659.2  162.973
 5.1076  26197.5  162.133
 5.3056  26879.3  163.85
 5.5036  26153.5  161.633
 5.7016  26867.8  163.783
 5.8996  27183.3  163.96
 6.0976  28262.1  168.624
 6.2956  28387.2  168.336
 6.4936  28955.5  169.213
 6.6916  29397.3  171.49
 6.8896  30126.5  173.464
 7.0876  31296.2  177.444
 7.2856  30832  175.269
 7.4836  31266.4  175.843
 7.6816  32083.3  178.655
 7.8796  33404.3  182.285
 8.0776  34828.2  187.098
 8.2756  36597  190.396
 8.4736  37312.7  192.069
 8.6716  36352.6  190.215
 8.8696  36187  190.229
 9.0676  35339.5  187.365
 9.2656  34223.6  185.063
 9.4636  34015.4  182.928
 9.6616  33196.9  181.472
 9.8596  31907.6  177.42
 10.0576  30319.2  173.6
 10.2556  28924.2  169.99
 10.4536  28433.6  168.152
 10.6516  27961.7  166.941
 10.8496  27156.2  163.922
 11.0476  26243.9  161.132
 11.2456  25513.5  159.441
 11.4436  25558.7  158.761
 11.6416  25456.5  158.803
 11.8396  24003.9  154.405
 12.0376  23902.8  153.701
 12.2356  23398.8  152.517
 12.4336  23423.5  152.121
 12.6316  22969.5  150.898
 12.8296  23538.1  152.4
 13.0276  23877.6  153.674
 13.2256  23845.1  153.926
 13.4236  23865.8  153.757
 13.6216  23777.1  153.5
 13.8196  23636.3  152.812
 14.0176  23440.2  152.46
 14.2156  22656  148.952
 14.4136  21815  147.513
 14.6116  21392.1  145.299
 14.8096  20927.1  143.688
 15.0076  19727.5  143.275
 15.2056  19527  138.407
 15.4036  18281.5  134.733
 15.6016  18175.9  133.436
 15.7996  17665.8  131.821
 15.9976  16932.3  131.97
 16.1956  16458.4  128.001
 16.3936  16367  126.827
 16.5916  16025.1  126.122
 16.7896  16025.8  126.179
 16.9876  15747.7  126.53
 17.1856  15580.3  124.261
 17.3836  15229  122.752
 17.5816  14714.2  121.132
 17.7796  14523.2  120.276
 17.9776  14483.2  120.879
 18.1756  14619.5  120.18
 18.3736  14549.1  120.393
 18.5716  14200.8  118.692
 18.7696  14305.5  118.7
 18.9676  13741.3  116.15
 19.1656  13788.1  116.886
 19.3636  13630.2  116.43
 19.5616  13493.7  116.005
 19.7596  13829.5  116.849
 19.9576  14036.2  117.777
 20.1556  13883.6  117.653
 20.3536  13161.9  113.941
 20.5516  12972.5  113.561
 20.7496  12814.4  112.717
 20.9476  12779.5  112.41
 21.1456  12989.2  113.653
 21.3436  12638.8  112.058
 21.5416  12549.7  111.667
 21.7396  12498.6  111.288
 21.9376  12402.4  110.632
 22.1356  12469.2  111.074
 22.3336  12542.4  111.641
 22.5316  12456.3  111.37
 22.7296  12308.4  110.067
 22.9276  12320.4  110.793
 23.1256  12433.5  110.781
 23.3236  12379.6  111.089
 23.5216  12259.4  110.212
 23.7196  12121.9  109.752
 23.9176  12121.6  109.299
 24.1156  12054.9  109.464
 24.3136  11695.2  108.62
 24.5116  11635.3  107.872
 24.7096  11204.9  105.676
 24.9076  11034.3  104.898
 25.1056  10998.7  104.915
 25.3036  10899.6  104.219
 25.5016  10869  104.107
 25.6996  10884.3  103.765
 25.8976  10726.4  103.438
 26.0956  10724.5  103.445
 26.2936  10675.7  102.865
 26.4916  10701.6  102.864
 26.6896  10444.3  101.917
 26.8876  10356.5  101.348
 27.0856  10425.2  101.69
 27.2836  10328.4  101.306
 27.4816  10167.6  100.296
 27.6796  10073.3  100.201
 27.8776  9921.77  99.3073
 28.0756  9931.64  99.6346
 28.2736  9782.57  98.4762
 28.4716  9713.43  98.1738
 28.6696  9787.21  98.3911
 28.8676  9601.19  97.791
 29.0656  9455.6  97.0305
 29.2636  9452.74  96.7295
 29.4616  9406.96  96.7578
 29.6596  9499.32  96.8019
 29.8576  9405.37  97.0016
 30.0556  9269.2  96.1672
 30.2536  9451.35  96.9107
 30.4516  9151.59  95.02
 30.6496  9318.12  95.6099
 30.8476  9205.21  95.4661
 31.0456  9149.96  95.144
 31.2436  9106.08  94.192
 31.4416  8975.48  93.7006
 31.6396  9074.78  94.2639
 31.8376  8989.99  93.3798
 32.0356  8931.05  93.6209
 32.2336  9053.23  93.6553
 32.4316  8788.39  92.6703
 32.6296  8682.86  91.8816
 32.8276  8899.68  92.8699
 33.0256  8689.88  91.8384
 33.2236  8710.25  92.0909
 33.4216  8796.66  92.2387
 33.6196  8702.62  92.0401
 33.8176  8631.02  91.8145
 34.0156  8604.99  91.3001
 34.2136  8442.25  90.4696
 34.4116  8439.56  90.6078
 34.6096  8400.31  90.2749
 34.8076  8155.6  89.3487
 35.0056  8383.41  90.2825
 35.2036  8244.01  89.7281
 35.4016  8278.63  89.8424
 35.5996  8334.31  90.1809
 35.7976  8205.01  89.7471
 35.9956  8262.57  89.717
 36.1936  8160.26  89.0309
 36.3916  8060.04  88.6557
 36.5896  8090.77  90.2311
 36.7876  8049.52  88.9627
 36.9856  8090.75  89.2181
 37.1836  8133.91  88.5646
 37.3816  8094.64  88.7079
 37.5796  7891.65  89.2807
 37.7776  7793.3  87.135
 37.9756  7996.84  88.1427
 38.1736  7962.38  88.15
 38.3716  7910.92  88.1388
 38.5696  7711.96  87.396
 38.7676  7619.45  86.3956
 38.9656  7762.37  86.8403
 39.1636  7670.83  86.5592
 39.3616  7754.21  86.9903
 39.5596  7628.71  87.1107
 39.7576  7725.69  87.0376
 39.9556  7751.48  86.8345
 40.1536  7854.25  87.6002
 40.3516  7843.59  87.635
 40.5496  7839.17  87.5839
 40.7476  7722.56  87.1305
 40.9456  7861.93  87.6678
 41.1436  7830.88  87.2213
 41.3416  7753.2  87.1207
 41.5396  7732.55  86.812
 41.7376  7744.27  87.1446
 41.9356  7580.69  86.0822
 42.1336  7761.96  87.2492
 42.3316  7664.33  86.896
 42.5296  7628.42  86.2145
 42.7276  7682.24  86.7565
 42.9256  7670.98  86.565
 43.1236  7635.87  86.4729
 43.3216  7545.88  85.817
 43.5196  7522.74  85.6487
 43.7176  7484.96  85.8203
 43.9156  7383.04  85.1449
 44.1136  7515.02  85.4574
 44.3116  7402.77  84.8267
 44.5096  7374.96  84.9764
 44.7076  7368.07  84.8666
 44.9056  7289.57  84.2806
 45.1036  7280.16  83.8586
 45.3016  7152.1  83.6045
 45.4996  7108.41  83.2893
 45.6976  7076.78  83.2748
 45.8956  7236.08  84.0415
 46.0936  7155.88  83.3367
 46.2916  7220.19  83.9311
 46.4896  7081.86  83.1592
 46.6876  7183.33  84.4535
 46.8856  7031.38  82.9323
 47.0836  6953.88  82.6077
 47.2816  6957.81  82.5131
 47.4796  7019.39  82.9831
 47.6776  6893.78  83.1471
 47.8756  6937.9  82.6154
 48.0736  6955.31  83.1453
 48.2716  6731.38  81.6409
 48.4696  6904.32  82.282
 48.6676  6894.11  82.7988
 48.8656  6852.18  82.2714
 49.0636  6787.26  81.8382
 49.2616  6666.81  81.1423
 49.4596  6748.73  81.1943
 49.6576  6692.65  81.0833
 49.8556  6746.21  81.4371
 50.0536  6593.55  80.9462
 50.2516  6579.17  80.9554
 50.4496  6584.45  80.6859
 50.6476  6601.44  80.4777
 50.8456  6576.15  80.4031
 51.0436  6463.54  80.1454
 51.2416  6342.98  79.0765
 51.4396  6253.46  78.905
 51.6376  6406.46  79.6952
 51.8356  6406.12  79.3296
 52.0336  6274.48  78.9995
 52.2316  6315.97  79.6016
 52.4296  6382.35  79.7069
 52.6276  6331.22  79.5019
 52.8256  6265.98  78.6595
 53.0236  6178.4  78.7524
 53.2216  6151.43  78.5927
 53.4196  6133.09  78.4211
 53.6176  6142.01  78.9453
 53.8156  6191.34  78.9415
 54.0136  6135.61  78.7445
 54.2116  6088.64  78.1146
 54.4096  6187.03  78.7924
 54.6076  6030.18  78.1308
 54.8056  6079.96  78.2394
 55.0036  6076.87  78.4828
 55.2016  6093.41  78.1972
 55.3996  6063.9  78.0501
 55.5976  6028.29  78.0034
 55.7956  6065.27  78.057
 55.9936  5984.26  77.6719
 56.1916  5989.71  77.7233
 56.3896  5989.92  77.7152
 56.5876  6002.54  78.3404
 56.7856  5881.5  77.0396
 56.9836  5934.48  77.1802
 57.1816  5950.05  77.6485
 57.3796  6059.55  78.1363
 57.5776  5900.32  77.0521
 57.7756  5924.23  77.8405
 57.9736  5922.87  77.5102
 58.1716  6004.62  78.281
 58.3696  5970.68  77.8186
 58.5676  5936.7  77.077
 58.7656  5957.41  77.8688
 58.9636  5966.01  77.9614
 59.1616  5971.57  78.1236
 59.3596  6187.96  78.7692
 59.5576  6088.67  78.1939
 59.7556  5892.87  77.3394
 59.9536  5989.05  77.8674
 60.1516  6019.55  78.9126
 60.1996  0.0000000E+00  0.0000000E+00

File: 17_Da_f00030.xye
# /beamlines/bl04/projects/cycle2025-II/20250340211-lsimonelli/DATA/IS17_D/17_Da_f00030.xye : mythproc.py merge -s 0.006 -l 0.5 -f /beamlines/bl04/inhouse/ff/FlatField/ff_20Nov2024rod8mm60s_17keV.raw -b True -c true -o xye /beamlines/bl04/projects/cycle2025-II/20250340211-lsimonelli/DATA/IS17_D/17_Da_00030.dat
# IsMon = [6746994, 6748607, 6747893]  IsPos = [-1.4999, -2.4885, -3.4986]
# Wave = 0.4962  CalPath /beamlines/bl04/projects/cycle2025-II/20250340211-lsimonelli/DATA/Align/Si_Pos1_25keV_f00001.cal
# Date = 2025-09-24_01:53:56 Dt = 4.8000  Bin = 0.0060  <imon> = 6747831 +/- 660 (Min/Max) 6746994 / 6748607
# icurr 249.2411  mocoIn 1.7006E-05  mocoOut 0.7985  i15 7.06335e+06  imon 6.74783e+06  i7 7.0000  iEMpd_timer 4.8000  iEMpd_1 3.6432E-08  iEMpd_2 7.8578E-08  iEMpd_3 1.6694E-08  iEMpd_4 4.8136E-08  iEMhp_timer 4.8000  iEMhp_1 4.8708E-06  iEMhp_2 -2.5055E-08  iEMhp_3 -2.2443E-08  iEMhp_4 -2.1009E-08
#      9776
 1.7416  69274.8  263.293
 1.9396  44773.6  211.944
 2.1376  31705.1  178.348
 2.3356  28011.1  167.284
 2.5336  26211.3  162.39
 2.7316  24608.2  157.44
 2.9296  23611.7  154.388
 3.1276  23133.2  152.377
 3.3256  22844  151.087
 3.5236  24977.8  157.947
 3.7216  22623.1  151.394
 3.9196  22298.7  149.546
 4.1176  22070.7  148.552
 4.3156  23468.7  153.345
 4.5136  25660.5  159.341
 4.7116  26797.8  163.962
 4.9096  26215.7  161.614
 5.1076  25925.4  161.289
 5.3056  26408.4  162.405
 5.5036  25945  160.995
 5.7016  26491.5  162.631
 5.8996  27019.9  163.469
 6.0976  27774.3  167.161
 6.2956  28045.6  167.319
 6.4936  28902.7  169.052
 6.6916  29063.2  170.513
 6.8896  29827.7  172.597
 7.0876  30848.7  176.252
 7.2856  30615  174.652
 7.4836  30810  174.555
 7.6816  31504.8  177.035
 7.8796  32840.7  180.737
 8.0776  34114  185.172
 8.2756  36001.2  188.846
 8.4736  36627.8  190.302
 8.6716  35856.2  188.907
 8.8696  35696.8  188.958
 9.0676  35016.4  186.524
 9.2656  33957  184.355
 9.4636  33406.3  181.291
 9.6616  32616.6  179.9
 9.8596  31562.8  176.445
 10.0576  29682.5  171.749
 10.2556  28937  170.012
 10.4536  28068.9  167.054
 10.6516  27480.3  165.477
 10.8496  26627.3  162.323
 11.0476  25787.4  159.718
 11.2456  25227.8  158.543
 11.4436  25346.1  158.104
 11.6416  25238.6  158.124
 11.8396  23750.6  153.587
 12.0376  23696.9  153.039
 12.2356  23140.2  151.67
 12.4336  23252.1  151.562
 12.6316  22635.2  149.798
 12.8296  23004.8  150.664
 13.0276  23656.2  152.956
 13.2256  23732.7  153.565
 13.4236  23424.9  152.338
 13.6216  23352.9  152.123
 13.8196  23518.7  152.432
 14.0176  22893.7  150.674
 14.2156  22534.9  148.556
 14.4136  21508.1  146.475
 14.6116  21048.6  144.127
 14.8096  20790.9  143.226
 15.0076  19553.3  142.638
 15.2056  19184.1  137.189
 15.4036  18375.5  135.085
 15.6016  18044.5  132.955
 15.7996  17452.4  131.031
 15.9976  16650.7  130.853
 16.1956  16340  127.551
 16.3936  15965  125.273
 16.5916  15723.4  124.937
 16.7896  15770.4  125.184
 16.9876  15625.8  126.038
 17.1856  15467.8  123.795
 17.3836  14908.5  121.435
 17.5816  14628.4  120.772
 17.7796  14365.5  119.616
 17.9776  14276.3  120.02
 18.1756  14508.9  119.722
 18.3736  14421  119.858
 18.5716  14137.1  118.425
 18.7696  14021.1  117.518
 18.9676  13625.5  115.657
 19.1656  13569.4  115.967
 19.3636  13544.7  116.061
 19.5616  13410.5  115.648
 19.7596  13554.6  115.687
 19.9576  13643.7  116.115
 20.1556  13844.8  117.49
 20.3536  13181.1  114.028
 20.5516  12928.3  113.37
 20.7496  12813.7  112.806
 20.9476  12573.5  111.498
 21.1456  12698.3  112.37
 21.3436  12554.8  111.69
 21.5416  12442.7  111.193
 21.7396  12271.6  110.277
 21.9376  12090.5  109.228
 22.1356  12392.5  110.59
 22.3336  12146.2  109.864
 22.5316  12200  110.216
 22.7296  12140.3  109.322
 22.9276  12271.5  110.578
 23.1256  12470.7  110.955
 23.3236  12179.8  110.204
 23.5216  12173.8  109.838
 23.7196  11822.4  108.183
 23.9176  12058.4  109.018
 24.1156  11813.1  108.37
 24.3136  11370.7  107.089
 24.5116  11548.5  107.46
 24.7096  11103.2  105.188
 24.9076  10969.5  104.573
 25.1056  10819.1  104.044
 25.3036  10632.8  102.934
 25.5016  10681.3  103.202
 25.6996  10572.5  102.266
 25.8976  10687.4  103.249
 26.0956  10560.6  102.655
 26.2936  10472  101.875
 26.4916  10592.8  102.348
 26.6896  10225.8  100.846
 26.8876  10216.4  100.656
 27.0856  10279.3  100.975
 27.2836  10053.1  99.95
 27.4816  9999.59  99.4647
 27.6796  9793.75  98.8
 27.8776  9752.49  98.4527
 28.0756  9901.71  99.4855
 28.2736  9901.67  99.0706
 28.4716  9560.58  97.3977
 28.6696  9651.38  97.7056
 28.8676  9391.45  96.7231
 29.0656  9346.93  96.4679
 29.2636  9402.48  96.478
 29.4616  9332  96.3712
 29.6596  9432.53  96.4615
 29.8576  9107.13  95.4519
 30.0556  9233.14  95.9869
 30.2536  9349.28  96.3864
 30.4516  9115.63  94.8423
 30.6496  9099.25  94.4889
 30.8476  8980.83  94.3026
 31.0456  8891.26  93.7888
 31.2436  9038.18  93.8467
 31.4416  9114.15  94.4046
 31.6396  8869.84  93.1843
 31.8376  8995.31  93.3992
 32.0356  8807.91  92.9628
 32.2336  8848.13  92.5808
 32.4316  8682.3  92.1053
 32.6296  8726.43  92.1142
 32.8276  8689.83  91.7706
 33.0256  8643  91.5931
 33.2236  8482.99  90.882
 33.4216  8683.15  91.6424
 33.6196  8497.84  90.9446
 33.8176  8475.91  90.9734
 34.0156  8470.07  90.5773
 34.2136  8442.25  90.4707
 34.4116  8330.32  90.0125
 34.6096  8282.55  89.6399
 34.8076  8237.62  89.7936
 35.0056  8236.56  89.4874
 35.2036  8269.06  89.8755
 35.4016  8165.27  89.232
 35.5996  8173.63  89.3058
 35.7976  8050.97  88.9063
 35.9956  8121.43  88.9388
 36.1936  7982.92  88.0572
 36.3916  7971.58  88.1663
 36.5896  7941.98  89.4133
 36.7876  7998.76  88.6854
 36.9856  7904.64  88.1875
 37.1836  7937.93  87.4912
 37.3816  7950.49  87.9203
 37.5796  7789.55  88.7124
 37.7776  7571.77  85.8948
 37.9756  7828.08  87.2136
 38.1736  7870.73  87.6516
 38.3716  7764.02  87.3225
 38.5696  7788.98  87.8294
 38.7676  7446.32  85.3954
 38.9656  7593.58  85.8838
 39.1636  7623.54  86.2868
 39.3616  7594.22  86.0729
 39.5596  7587.47  86.8652
 39.7576  7497.54  85.746
 39.9556  7736.67  86.7488
 40.1536  7735.79  86.9403
 40.3516  7667.79  86.6482
 40.5496  7705.6  86.8319
 40.7476  7697.57  86.9963
 40.9456  7792.6  87.2841
 41.1436  7693.43  86.4538
 41.3416  7682.64  86.7207
 41.5396  7547.9  85.7775
 41.7376  7613.47  86.4055
 41.9356  7565.26  85.9921
 42.1336  7645.58  86.5876
 42.3316  7566.72  86.3404
 42.5296  7667.49  86.4359
 42.7276  7636.94  86.501
 42.9256  7469.3  85.4078
 43.1236  7544.26  85.9524
 43.3216  7507.94  85.6025
 43.5196  7433.59  85.1371
 43.7176  7373.67  85.1772
 43.9156  7331.96  84.8468
 44.1136  7328.73  84.3917
 44.3116  7334.46  84.4383
 44.5096  7296.19  84.5172
 44.7076  7257.62  84.2266
 44.9056  7229.05  83.936
 45.1036  7263.35  83.7693
 45.3016  7100.22  83.3077
 45.4996  7040.95  82.902
 45.6976  6955.28  82.5672
 45.8956  7061.32  83.0104
 46.0936  7062.94  83.0218
 46.2916  7099.1  83.2186
 46.4896  7089.65  83.1846
 46.6876  7048.05  83.6463
 46.8856  6910.24  82.2175
 47.0836  6841.86  81.9421
 47.2816  6905.44  82.1987
 47.4796  6840.37  81.9135
 47.6776  6744.17  82.2482
 47.8756  6875.76  82.2468
 48.0736  6849.56  82.5115
 48.2716  6660.83  81.2118
 48.4696  6795.81  81.6255
 48.6676  6799.39  82.225
 48.8656  6758.08  81.7121
 49.0636  6759.73  81.6623
 49.2616  6503.26  80.1377
 49.4596  6660.07  80.6782
 49.6576  6622.57  80.6618
 49.8556  6577.83  80.4113
 50.0536  6529.71  80.5523
 50.2516  6603.6  81.1138
 50.4496  6522.24  80.295
 50.6476  6494.72  79.8234
 50.8456  6486.9  79.8527
 51.0436  6316.02  79.2257
 51.2416  6380.59  79.3092
 51.4396  6207.23  78.6112
 51.6376  6271.84  78.8449
 51.8356  6399.66  79.2804
 52.0336  6155.35  78.2504
 52.2316  6177.69  78.7314
 52.4296  6325.19  79.3562
 52.6276  6189.78  78.6242
 52.8256  6210.87  78.3213
 53.0236  6177.68  78.7405
 53.2216  6081.76  78.1592
 53.4196  5978.15  77.4088
 53.6176  6088.86  78.5943
 53.8156  5939.76  77.3076
 54.0136  6061.78  78.2764
 54.2116  6046.95  77.8467
 54.4096  6042.46  77.8702
 54.6076  6038.74  78.1866
 54.8056  5979.14  77.5927
 55.0036  5981.13  77.9905
 55.2016  5968.38  77.4558
 55.3996  6029.31  77.8265
 55.5976  5957.46  77.5324
 55.7956  6021.9  77.7815
 55.9936  5859.41  76.8589
 56.1916  5978.19  77.641
 56.3896  5901.41  77.1397
 56.5876  5789.86  76.9368
 56.7856  5857.03  76.873
 56.9836  5793.43  76.2571
 57.1816  5864.33  77.0882
 57.3796  5916.06  77.2049
 57.5776  5848.49  76.7201
 57.7756  5813.66  77.1089
 57.9736  5840.5  76.9713
 58.1716  5887.94  77.5126
 58.3696  5849.43  77.0198
 58.5676  5931.4  77.0453
 58.7656  5897.81  77.4836
 58.9636  5927.62  77.7127
 59.1616  5838.64  77.2509
 59.3596  5985.1  77.4844
 59.5576  6009.33  77.6974
 59.7556  5936.45  77.6395
 59.9536  6079.18  78.4658
 60.1516  5824.69  77.6395
 60.1996  0.0000000E+00  0.0000000E+00