Folder: echemistpy/docs/examples/opeando_xrd/IS17_D/Data/IS17_D (part 86)

File: 17_Db_f00065.xye
# /beamlines/bl04/projects/cycle2025-II/20250340211-lsimonelli/DATA/IS17_D/17_Db_f00065.xye : mythproc.py merge -s 0.006 -l 0.5 -f /beamlines/bl04/inhouse/ff/FlatField/ff_20Nov2024rod8mm60s_17keV.raw -b True -c true -o xye /beamlines/bl04/projects/cycle2025-II/20250340211-lsimonelli/DATA/IS17_D/17_Db_00065.dat
# IsMon = [6761414, 6762487, 6765539]  IsPos = [-1.5000, -2.4885, -3.4988]
# Wave = 0.4962  CalPath /beamlines/bl04/projects/cycle2025-II/20250340211-lsimonelli/DATA/Align/Si_Pos1_25keV_f00001.cal
# Date = 2025-09-24_11:48:32 Dt = 4.8000  Bin = 0.0060  <imon> = 6763147 +/- 1747 (Min/Max) 6761414 / 6765539
# icurr 250.4588  mocoIn 1.7091E-05  mocoOut 0.8021  i15 7.08608e+06  imon 6.76315e+06  i7 4.6667  iEMpd_timer 4.8000  iEMpd_1 3.2041E-08  iEMpd_2 7.8825E-08  iEMpd_3 1.6134E-08  iEMpd_4 4.6920E-08  iEMhp_timer 4.8000  iEMhp_1 4.8933E-06  iEMhp_2 -2.5430E-08  iEMhp_3 -2.4867E-08  iEMhp_4 -2.1359E-08
#      9776
 1.7416  69915.8  264.526
 1.9396  48174  219.862
 2.1376  34772.8  186.789
 2.3356  31362.4  177.02
 2.5336  29736.7  172.978
 2.7316  26603.8  163.723
 2.9296  25531.2  160.543
 3.1276  24849.1  157.932
 3.3256  24187.5  155.471
 3.5236  26158  161.637
 3.7216  23777.4  155.2
 3.9196  23294.2  152.821
 4.1176  23301.3  152.633
 4.3156  24036.5  155.183
 4.5136  26791.4  162.818
 4.7116  27634.4  166.491
 4.9096  26917.4  163.754
 5.1076  26558.2  163.242
 5.3056  26498.8  162.767
 5.5036  26253.5  162.018
 5.7016  26780.8  163.515
 5.8996  27158.6  163.903
 6.0976  28080.9  168.069
 6.2956  28195.1  167.755
 6.4936  29127.6  169.699
 6.6916  29280.9  171.139
 6.8896  30303.6  173.952
 7.0876  31554.6  178.159
 7.2856  31170.1  176.212
 7.4836  31650.3  176.914
 7.6816  32269.5  179.146
 7.8796  33252.1  181.855
 8.0776  35552.1  189.03
 8.2756  36824.3  190.99
 8.4736  37072.7  191.448
 8.6716  36477.2  190.534
 8.8696  37710.8  194.235
 9.0676  36533.4  190.502
 9.2656  35239.9  187.791
 9.4636  34381.3  183.946
 9.6616  33603  182.585
 9.8596  33103.2  180.687
 10.0576  31159.1  175.977
 10.2556  30257.1  173.861
 10.4536  31102.2  175.857
 10.6516  30684.6  174.885
 10.8496  27460  164.839
 11.0476  26919.3  163.185
 11.2456  27394  165.215
 11.4436  26927.7  162.956
 11.6416  25612.5  159.268
 11.8396  24739.9  156.739
 12.0376  24177.1  154.571
 12.2356  24480  155.995
 12.4336  24183.8  154.572
 12.6316  23682.6  153.223
 12.8296  23986.4  153.82
 13.0276  24115.7  154.429
 13.2256  23995.9  154.411
 13.4236  24148.2  154.677
 13.6216  24473  155.711
 13.8196  26863.5  162.593
 14.0176  23538.6  152.783
 14.2156  23331.5  151.131
 14.4136  22075.6  148.392
 14.6116  21727  146.42
 14.8096  20885.6  143.536
 15.0076  20020.1  144.396
 15.2056  19139.2  137.022
 15.4036  18304.1  134.819
 15.6016  17860.8  132.276
 15.7996  17596.3  131.559
 15.9976  17160.7  132.809
 16.1956  16841.3  129.466
 16.3936  16520.6  127.4
 16.5916  16515.5  128.035
 16.7896  16560.9  128.268
 16.9876  16232.2  128.442
 17.1856  15876.9  125.429
 17.3836  15370.3  123.325
 17.5816  15066.2  122.573
 17.7796  15110.4  122.686
 17.9776  14821.3  122.26
 18.1756  15231.4  122.679
 18.3736  15055.3  122.462
 18.5716  14386.2  119.459
 18.7696  14417.3  119.151
 18.9676  14189.5  118.008
 19.1656  14007  117.829
 19.3636  13747.8  116.931
 19.5616  13850.3  117.535
 19.7596  14165.7  118.267
 19.9576  14771.6  120.809
 20.1556  13544  116.186
 20.3536  13393.3  114.94
 20.5516  13253.8  114.777
 20.7496  13088.8  113.921
 20.9476  13250.1  114.462
 21.1456  13031.2  113.831
 21.3436  12821.6  112.864
 21.5416  12717.2  112.419
 21.7396  12523.9  111.404
 21.9376  12545.7  111.272
 22.1356  12720.1  112.324
 22.3336  12355.7  110.809
 22.5316  12366  110.965
 22.7296  12311.8  110.09
 22.9276  12168.7  110.106
 23.1256  12443.3  110.824
 23.3236  12451.3  111.433
 23.5216  12400  110.843
 23.7196  12452.9  111.252
 23.9176  12480.2  110.908
 24.1156  12266.4  110.414
 24.3136  11714.7  108.705
 24.5116  11963.5  109.374
 24.7096  11648  107.741
 24.9076  11513.9  107.149
 25.1056  11162.6  105.693
 25.3036  11031  104.842
 25.5016  10947.8  104.48
 25.6996  10958.4  104.118
 25.8976  11041.1  104.939
 26.0956  10854.8  104.059
 26.2936  10862.2  103.761
 26.4916  11025.1  104.377
 26.6896  10715.4  103.227
 26.8876  10586.5  102.456
 27.0856  10375.7  101.446
 27.2836  10346.4  101.233
 27.4816  10311.6  100.999
 27.6796  10194.8  100.79
 27.8776  10498.7  102.146
 28.0756  10139.3  100.665
 28.2736  10087.3  99.9901
 28.4716  9831.65  98.7688
 28.6696  9976.58  99.3386
 28.8676  9726.37  98.4315
 29.0656  9638.45  97.9617
 29.2636  9705.17  98.0172
 29.4616  9368.65  96.5585
 29.6596  9364.65  96.1088
 29.8576  9170.05  95.7783
 30.0556  9250.93  96.0754
 30.2536  9232.4  95.7799
 30.4516  9491.43  96.7656
 30.6496  9582.66  96.9393
 30.8476  9391.44  96.4264
 31.0456  9519.68  97.0433
 31.2436  9436.05  95.8833
 31.4416  9238.07  95.0535
 31.6396  9489.4  96.3777
 31.8376  9275.98  94.8146
 32.0356  9180.61  94.8926
 32.2336  9240.17  94.6126
 32.4316  8888.55  93.1932
 32.6296  8935.5  93.2056
 32.8276  8984.89  93.3146
 33.0256  8756.88  92.1848
 33.2236  8903.24  93.0978
 33.4216  8837.75  92.4405
 33.6196  8780.6  92.4372
 33.8176  8798.37  92.6953
 34.0156  8725.75  91.9442
 34.2136  8752.55  92.1113
 34.4116  8537  91.1283
 34.6096  8505.35  90.8393
 34.8076  8443.92  90.9254
 35.0056  8372.35  90.2132
 35.2036  8617.68  91.7506
 35.4016  8371  90.3399
 35.5996  8429.7  90.695
 35.7976  8249.83  89.9888
 35.9956  8419.7  90.5661
 36.1936  8490.88  90.785
 36.3916  8290.24  89.9092
 36.5896  8338.11  91.6327
 36.7876  8030.41  88.8559
 36.9856  7913.24  88.2327
 37.1836  7937.71  87.4858
 37.3816  8006.41  88.2223
 37.5796  7999.13  89.8969
 37.7776  8063.45  88.6314
 37.9756  8101.51  88.7326
 38.1736  8202.17  89.4667
 38.3716  8050.98  88.9138
 38.5696  7931.22  88.6218
 38.7676  7835.96  87.6104
 38.9656  7889.11  87.5372
 39.1636  7957.84  88.1651
 39.3616  8026.86  88.5067
 39.5596  7819.45  88.1791
 39.7576  7886.15  87.9424
 39.9556  7839.96  87.3285
 40.1536  8034.87  88.6036
 40.3516  7877.48  87.7411
 40.5496  7891.08  87.8648
 40.7476  7952.55  88.4237
 40.9456  8031.76  88.6113
 41.1436  7937.76  87.8165
 41.3416  7800.09  87.383
 41.5396  7813.52  87.2716
 41.7376  7906.19  88.0462
 41.9356  7796.58  87.2831
 42.1336  8046.45  88.8282
 42.3316  7806.36  87.6844
 42.5296  7818.57  87.2774
 42.7276  7877.58  87.8507
 42.9256  7795.77  87.2635
 43.1236  7813.97  87.4684
 43.3216  7770.18  87.0723
 43.5196  7656.22  86.3872
 43.7176  7707.6  87.0825
 43.9156  7549.03  86.0941
 44.1136  7525.3  85.5133
 44.3116  7524.58  85.5197
 44.5096  7522.57  85.8199
 44.7076  7506.22  85.656
 44.9056  7619.39  86.1693
 45.1036  7580.66  85.5723
 45.3016  7531.89  85.7963
 45.4996  7632.45  86.3079
 45.6976  7458.65  85.494
 45.8956  7465  85.358
 46.0936  7551.22  85.6051
 46.2916  7588.14  86.0425
 46.4896  7565.61  85.9361
 46.6876  7420.52  85.8303
 46.8856  7454.61  85.2798
 47.0836  7430.4  85.3964
 47.2816  7321.78  84.6427
 47.4796  7352.15  84.9244
 47.6776  7275.5  85.4391
 47.8756  7364.91  85.1248
 48.0736  7419.62  85.8975
 48.2716  7296.04  84.9877
 48.4696  7358.74  84.94
 48.6676  7403.51  85.8081
 48.8656  7454.96  85.8183
 49.0636  7381.18  85.343
 49.2616  7240.81  84.5629
 49.4596  7364.52  84.837
 49.6576  7253.22  84.4185
 49.8556  7329.4  84.8833
 50.0536  7281.96  85.0439
 50.2516  7245.53  84.9635
 50.4496  7192.88  84.3292
 50.6476  7164.35  83.8335
 50.8456  7318.28  84.8181
 51.0436  7093.33  83.9564
 51.2416  6945.45  82.7428
 51.4396  6805.98  82.3143
 51.6376  6979.85  83.1841
 51.8356  6943.53  82.582
 52.0336  6991.06  83.3816
 52.2316  6993.77  83.7592
 52.4296  6884.27  82.8017
 52.6276  6869.73  82.8256
 52.8256  7004.7  83.1886
 53.0236  7033.75  84.02
 53.2216  7005.25  83.8629
 53.4196  6767.11  82.3549
 53.6176  7006.65  84.3143
 53.8156  6888.65  83.2629
 54.0136  6638.47  81.9019
 54.2116  6794.39  82.4971
 54.4096  6700.63  81.9978
 54.6076  6587.66  81.6368
 54.8056  6543.47  81.1519
 55.0036  6596.45  81.7449
 55.2016  6531.13  80.9128
 55.3996  6322.32  79.6777
 55.5976  6440.26  80.6035
 55.7956  6428.34  80.3482
 55.9936  6540.91  81.1879
 56.1916  6401.68  80.3429
 56.3896  6255.33  79.3874
 56.5876  6229.49  79.7912
 56.7856  6212.67  79.1643
 56.9836  6358.66  79.8749
 57.1816  6431.65  80.708
 57.3796  6223.12  79.1935
 57.5776  6258.14  79.2988
 57.7756  6225.2  79.7748
 57.9736  6131.05  78.8166
 58.1716  6070.16  78.7058
 58.3696  5951.56  77.6898
 58.5676  5987.76  77.3827
 58.7656  5961.09  77.8965
 58.9636  6005.76  78.2204
 59.1616  5977.25  78.165
 59.3596  5920.15  77.0482
 59.5576  6066.97  78.0557
 59.7556  5913.73  77.4774
 59.9536  5872.77  77.109
 60.1516  5826.55  77.6385
 60.1996  0.0000000E+00  0.0000000E+00

File: 17_Db_f00068.xye
# /beamlines/bl04/projects/cycle2025-II/20250340211-lsimonelli/DATA/IS17_D/17_Db_f00068.xye : mythproc.py merge -s 0.006 -l 0.5 -f /beamlines/bl04/inhouse/ff/FlatField/ff_20Nov2024rod8mm60s_17keV.raw -b True -c true -o xye /beamlines/bl04/projects/cycle2025-II/20250340211-lsimonelli/DATA/IS17_D/17_Db_00068.dat
# IsMon = [6789364, 6790026, 6793505]  IsPos = [-1.4999, -2.4884, -3.4988]
# Wave = 0.4962  CalPath /beamlines/bl04/projects/cycle2025-II/20250340211-lsimonelli/DATA/Align/Si_Pos1_25keV_f00001.cal
# Date = 2025-09-24_12:38:08 Dt = 4.8000  Bin = 0.0060  <imon> = 6790965 +/- 1816 (Min/Max) 6789364 / 6793505
# icurr 252.9199  mocoIn 1.7257E-05  mocoOut 0.8095  i15 7.11466e+06  imon 6.79096e+06  i7 6.6667  iEMpd_timer 4.8000  iEMpd_1 3.1866E-08  iEMpd_2 7.7960E-08  iEMpd_3 1.4975E-08  iEMpd_4 4.6679E-08  iEMhp_timer 4.8000  iEMhp_1 4.9414E-06  iEMhp_2 -2.4260E-08  iEMhp_3 -2.4635E-08  iEMhp_4 -2.2320E-08
#      9776
 1.7416  69717.4  264.147
 1.9396  47932.1  219.311
 2.1376  35162.1  187.83
 2.3356  31346.7  176.974
 2.5336  30158.7  174.199
 2.7316  26668.7  163.922
 2.9296  25319.2  159.867
 3.1276  25011.5  158.437
 3.3256  24350.9  155.993
 3.5236  25748.5  160.209
 3.7216  23687  154.904
 3.9196  23433.5  153.279
 4.1176  23248  152.459
 4.3156  23973.3  154.981
 4.5136  27084.1  163.703
 4.7116  27584.3  166.325
 4.9096  26807.3  163.42
 5.1076  26691.1  163.653
 5.3056  26606.5  163.097
 5.5036  26381.6  162.334
 5.7016  26894.6  163.86
 5.8996  27421.1  164.692
 6.0976  28251.5  168.577
 6.2956  28306.7  168.09
 6.4936  29064.1  169.516
 6.6916  29451.3  171.631
 6.8896  30355.4  174.102
 7.0876  31252.8  177.398
 7.2856  31288.4  176.541
 7.4836  31936.2  177.709
 7.6816  32483.9  179.735
 7.8796  33630.5  182.884
 8.0776  36329.7  191.086
 8.2756  37344.4  192.332
 8.4736  37501.7  192.555
 8.6716  36482.5  190.546
 8.8696  37933.8  194.807
 9.0676  37270.8  192.415
 9.2656  35890.7  189.513
 9.4636  34535.2  184.355
 9.6616  33733.1  182.934
 9.8596  33059.4  180.569
 10.0576  31005.3  175.538
 10.2556  30292.4  173.955
 10.4536  32326.2  179.283
 10.6516  32161.7  179.049
 10.8496  27659.2  165.441
 11.0476  27311.7  164.42
 11.2456  28614.2  168.854
 11.4436  27213.6  163.827
 11.6416  25735.8  159.634
 11.8396  24783.7  156.886
 12.0376  24218.2  154.709
 12.2356  25103.8  157.948
 12.4336  24501.9  155.584
 12.6316  23779.8  153.537
 12.8296  24022.3  153.921
 13.0276  24363.5  155.227
 13.2256  24304.2  155.404
 13.4236  24323.6  155.232
 13.6216  24536.7  155.914
 13.8196  27312.7  163.942
 14.0176  23706.7  153.319
 14.2156  23407.9  151.394
 14.4136  22050.7  148.31
 14.6116  21637.6  146.115
 14.8096  20908.3  143.6
 15.0076  20315.2  145.464
 15.2056  19250.8  137.423
 15.4036  18391.5  135.134
 15.6016  18087.3  133.11
 15.7996  17728.8  132.053
 15.9976  17220.7  133.046
 16.1956  16909.6  129.732
 16.3936  16834.6  128.613
 16.5916  16517.5  128.041
 16.7896  16497.3  128.017
 16.9876  16182.2  128.25
 17.1856  16083.4  126.242
 17.3836  15413  123.492
 17.5816  15361.4  123.767
 17.7796  15100.1  122.641
 17.9776  15022.5  123.096
 18.1756  15701.9  124.561
 18.3736  15500.9  124.259
 18.5716  14509  119.972
 18.7696  14522.1  119.579
 18.9676  14230.5  118.182
 19.1656  13988.3  117.752
 19.3636  13882.8  117.507
 19.5616  13852.2  117.542
 19.7596  14228.3  118.53
 19.9576  14611.9  120.153
 20.1556  13637.3  116.593
 20.3536  13557.7  115.64
 20.5516  13186.4  114.484
 20.7496  13198.6  114.477
 20.9476  13476.9  115.438
 21.1456  13194.1  114.541
 21.3436  12956.4  113.447
 21.5416  12679.5  112.254
 21.7396  12695.4  112.165
 21.9376  12533.1  111.216
 22.1356  12907.2  112.991
 22.3336  12516.2  111.55
 22.5316  12344  110.867
 22.7296  12242  109.785
 22.9276  12247.3  110.468
 23.1256  12566.8  111.371
 23.3236  12582.9  112.02
 23.5216  12527.5  111.409
 23.7196  12515.3  111.305
 23.9176  12443.7  110.742
 24.1156  12189.5  110.061
 24.3136  11992.6  109.986
 24.5116  12115.6  110.069
 24.7096  11853  108.683
 24.9076  11647  107.764
 25.1056  11275.3  106.483
 25.3036  11007.4  104.73
 25.5016  11184.5  105.606
 25.6996  11052.5  104.56
 25.8976  11226  105.81
 26.0956  11064.4  105.063
 26.2936  10995  104.396
 26.4916  11082.8  104.664
 26.6896  10702.3  103.158
 26.8876  10756.9  103.275
 27.0856  10556.9  102.369
 27.2836  10373.6  101.367
 27.4816  10338.1  101.131
 27.6796  10364  101.616
 27.8776  10664.7  102.942
 28.0756  10114.5  100.541
 28.2736  10255.4  100.818
 28.4716  9954.72  99.3883
 28.6696  9976.96  99.3399
 28.8676  9878.61  99.2055
 29.0656  9710.41  98.33
 29.2636  9804.67  98.5985
 29.4616  9543.42  97.4515
 29.6596  9257.8  95.5598
 29.8576  9424.16  97.0912
 30.0556  9456.48  97.1353
 30.2536  9529.76  97.31
 30.4516  9502.56  96.8171
 30.6496  9689.07  97.4887
 30.8476  9452.12  96.7373
 31.0456  9654.3  97.7284
 31.2436  9561.23  96.5067
 31.4416  9157.58  94.645
 31.6396  9675.45  97.3308
 31.8376  9437.86  95.6417
 32.0356  9360.16  95.8166
 32.2336  9341.28  95.1332
 32.4316  8999.79  93.7653
 32.6296  8943.58  93.3153
 32.8276  9092.42  93.8699
 33.0256  8976.9  93.3333
 33.2236  8972.6  93.4619
 33.4216  8918.61  92.867
 33.6196  8806.42  92.5748
 33.8176  8916.02  93.313
 34.0156  8812.34  92.3984
 34.2136  8748.89  92.0871
 34.4116  8512.57  90.9974
 34.6096  8630.99  91.512
 34.8076  8553.37  91.514
 35.0056  8587.99  91.3682
 35.2036  8795.98  92.7
 35.4016  8439.83  90.7157
 35.5996  8459.31  90.8489
 35.7976  8462.17  91.1277
 35.9956  8522.87  91.1182
 36.1936  8437.36  90.5049
 36.3916  8262.46  89.7603
 36.5896  8415.4  91.5828
 36.7876  8197.45  89.7692
 36.9856  7926.18  88.3066
 37.1836  8093.86  88.3429
 37.3816  7967.91  88.0101
 37.5796  8088.03  90.3992
 37.7776  8190.62  89.3335
 37.9756  8197.23  89.2522
 38.1736  8202.09  89.4606
 38.3716  8208.13  89.7568
 38.5696  8011.72  89.0636
 38.7676  7959.2  88.2982
 38.9656  7995.85  88.1218
 39.1636  8089.7  88.9212
 39.3616  7962.84  88.1543
 39.5596  7861.23  88.4093
 39.7576  7888.17  87.9581
 39.9556  7937.81  87.8727
 40.1536  8054.7  88.7136
 40.3516  7970.21  88.2564
 40.5496  8002.15  88.6859
 40.7476  8024.39  88.8177
 40.9456  8072.5  88.8321
 41.1436  8115.52  88.7933
 41.3416  7831.62  87.5534
 41.5396  7939.98  87.9715
 41.7376  7965.89  88.3745
 41.9356  7917.54  87.9645
 42.1336  8079.46  88.9949
 42.3316  7798.24  87.648
 42.5296  7973.78  88.1365
 42.7276  7945.27  88.2256
 42.9256  7934.57  88.0388
 43.1236  7870.08  87.7825
 43.3216  7873.22  87.5418
 43.5196  7721.69  86.7709
 43.7176  7834.8  87.7965
 43.9156  7563.53  86.176
 44.1136  7417.68  84.8978
 44.3116  7603.16  85.9642
 44.5096  7539.54  85.9172
 44.7076  7546.61  85.8867
 44.9056  7748.82  86.896
 45.1036  7640.27  85.9026
 45.3016  7648.68  86.4602
 45.4996  7598.54  86.1124
 45.6976  7480.8  85.6204
 45.8956  7612.46  86.196
 46.0936  7725.39  86.8399
 46.2916  7644.05  86.3431
 46.4896  7649.62  86.405
 46.6876  7489.05  86.2322
 46.8856  7454.85  85.2735
 47.0836  7438.57  85.441
 47.2816  7329.5  84.6888
 47.4796  7457.04  85.5262
 47.6776  7416.14  86.2552
 47.8756  7361.7  85.0965
 48.0736  7411.95  85.8542
 48.2716  7305.18  85.0486
 48.4696  7494.91  85.7291
 48.6676  7324.82  85.3438
 48.8656  7582.87  86.557
 49.0636  7580.05  86.4788
 49.2616  7273.6  84.7524
 49.4596  7378.58  84.9157
 49.6576  7279.74  84.5705
 49.8556  7349.49  85.0008
 50.0536  7275.42  85.0299
 50.2516  7318.55  85.408
 50.4496  7246.17  84.6403
 50.6476  7267.2  84.4333
 50.8456  7319.23  84.8204
 51.0436  7054.99  83.7305
 51.2416  7065.15  83.4549
 51.4396  7017.09  83.5825
 51.6376  6955.6  83.04
 51.8356  7023.99  83.0638
 52.0336  7036.12  83.6567
 52.2316  7026.19  83.9551
 52.4296  6996.12  83.4716
 52.6276  6866.1  82.8007
 52.8256  6988.94  83.0955
 53.0236  7113.34  84.4988
 53.2216  7007.43  83.9031
 53.4196  6987.41  83.6708
 53.6176  6983.93  84.1713
 53.8156  6784.78  82.6379
 54.0136  6699.77  82.2775
 54.2116  6829.77  82.7141
 54.4096  6696.9  81.9545
 54.6076  6610.8  81.7934
 54.8056  6550.28  81.1874
 55.0036  6596.8  81.8804
 55.2016  6655.9  81.7731
 55.3996  6410.69  80.2294
 55.5976  6524.24  81.1231
 55.7956  6444.66  80.4436
 55.9936  6607.96  81.5825
 56.1916  6473.38  80.7885
 56.3896  6309.79  79.7293
 56.5876  6248.18  79.9011
 56.7856  6282.76  79.6289
 56.9836  6419.42  80.2336
 57.1816  6414.64  80.5922
 57.3796  6259.96  79.4252
 57.5776  6278.05  79.4474
 57.7756  6143.82  79.2414
 57.9736  6267.88  79.7098
 58.1716  6204.51  79.5663
 58.3696  5964.05  77.771
 58.5676  6058.96  77.8573
 58.7656  6086.48  78.713
 58.9636  5934.14  77.7485
 59.1616  6005.71  78.3518
 59.3596  6029.48  77.754
 59.5576  5992.21  77.5725
 59.7556  5903.76  77.4113
 59.9536  5960.49  77.6819
 60.1516  5839.95  77.727
 60.1996  0.0000000E+00  0.0000000E+00