Folder: echemistpy/docs/examples/opeando_xrd/IS17_D/Data/IS17_D (part 26)

File: 17_Da_f00069.xye
# /beamlines/bl04/projects/cycle2025-II/20250340211-lsimonelli/DATA/IS17_D/17_Da_f00069.xye : mythproc.py merge -s 0.006 -l 0.5 -f /beamlines/bl04/inhouse/ff/FlatField/ff_20Nov2024rod8mm60s_17keV.raw -b True -c true -o xye /beamlines/bl04/projects/cycle2025-II/20250340211-lsimonelli/DATA/IS17_D/17_Da_00069.dat
# IsMon = [6771742, 6773378, 6764974]  IsPos = [-1.4999, -2.4884, -3.4988]
# Wave = 0.4962  CalPath /beamlines/bl04/projects/cycle2025-II/20250340211-lsimonelli/DATA/Align/Si_Pos1_25keV_f00001.cal
# Date = 2025-09-24_12:46:23 Dt = 4.8000  Bin = 0.0060  <imon> = 6770031 +/- 3638 (Min/Max) 6764974 / 6773378
# icurr 250.9415  mocoIn 1.7130E-05  mocoOut 0.8035  i15 7.09069e+06  imon 6.77003e+06  i7 3.3333  iEMpd_timer 4.8000  iEMpd_1 3.2786E-08  iEMpd_2 7.8235E-08  iEMpd_3 1.5925E-08  iEMpd_4 4.7377E-08  iEMhp_timer 4.8000  iEMhp_1 4.9029E-06  iEMhp_2 -2.3856E-08  iEMhp_3 -2.5590E-08  iEMhp_4 -2.1254E-08
#      9776
 1.7416  68428.4  261.63
 1.9396  44925.3  212.258
 2.1376  31732.5  178.388
 2.3356  28497  168.697
 2.5336  27861.2  167.391
 2.7316  24687  157.667
 2.9296  23786.9  154.93
 3.1276  23266  152.783
 3.3256  22925.8  151.331
 3.5236  24796.4  157.19
 3.7216  22556.3  151.169
 3.9196  22425  149.971
 4.1176  22103.9  148.657
 4.3156  23444.5  153.281
 4.5136  26487.2  161.879
 4.7116  26954.8  164.44
 4.9096  26394.6  162.165
 5.1076  25718.6  160.636
 5.3056  26289.6  162.164
 5.5036  25975.2  161.059
 5.7016  26368.5  162.256
 5.8996  27219.8  164.07
 6.0976  27667.3  166.832
 6.2956  28205.2  167.803
 6.4936  28892.5  169.022
 6.6916  29177.5  170.848
 6.8896  30474.2  174.46
 7.0876  31176.1  177.184
 7.2856  31128.1  176.11
 7.4836  31778.7  177.278
 7.6816  32641.4  180.204
 7.8796  33952.9  183.798
 8.0776  37018  192.91
 8.2756  38091.9  194.297
 8.4736  38252.8  194.491
 8.6716  37373.8  192.864
 8.8696  38126.6  195.306
 9.0676  37105  192.028
 9.2656  35842.6  189.425
 9.4636  35010.5  185.645
 9.6616  34484.6  185.015
 9.8596  33077.3  180.591
 10.0576  31245.1  176.175
 10.2556  30265.7  173.837
 10.4536  31991  178.31
 10.6516  33096.7  181.584
 10.8496  28019.9  166.518
 11.0476  27649.1  165.433
 11.2456  29099  170.27
 11.4436  27267.5  163.983
 11.6416  26036.6  160.599
 11.8396  24729.7  156.712
 12.0376  24536.7  155.763
 12.2356  25550.2  159.335
 12.4336  24704  156.219
 12.6316  23676.6  153.201
 12.8296  24366.6  155.06
 13.0276  24946  157.077
 13.2256  24429.1  155.805
 13.4236  24550.4  155.958
 13.6216  24340.2  155.3
 13.8196  25038.4  157.283
 14.0176  24042.9  154.413
 14.2156  23393.3  151.357
 14.4136  22356.2  149.332
 14.6116  22018.1  147.409
 14.8096  21309  145.016
 15.0076  20258  145.197
 15.2056  19809.8  139.422
 15.4036  18951  137.189
 15.6016  18742.8  135.517
 15.7996  18221.7  133.916
 15.9976  17388.9  133.742
 16.1956  16866.5  129.602
 16.3936  16677.9  128.051
 16.5916  16551.2  128.2
 16.7896  16541.2  128.218
 16.9876  16261.1  128.564
 17.1856  16094.8  126.247
 17.3836  15479.6  123.72
 17.5816  15198.2  123.08
 17.7796  15211.9  123.066
 17.9776  15115.6  123.498
 18.1756  15848.7  125.114
 18.3736  15755.5  125.271
 18.5716  14646.2  120.54
 18.7696  14708.4  120.358
 18.9676  14248.8  118.269
 19.1656  14208.1  118.678
 19.3636  14150.5  118.619
 19.5616  14005.7  118.187
 19.7596  14075  117.877
 19.9576  14739.7  120.689
 20.1556  13759  117.128
 20.3536  13563.2  115.668
 20.5516  13339.2  115.159
 20.7496  13183.6  114.418
 20.9476  13402.3  115.111
 21.1456  13643.1  116.486
 21.3436  12811.7  112.826
 21.5416  13013.9  113.719
 21.7396  12850.8  112.846
 21.9376  12823.5  112.505
 22.1356  13035.8  113.536
 22.3336  12819.8  112.891
 22.5316  12848.8  113.125
 22.7296  12756.1  112.067
 22.9276  12639.2  112.235
 23.1256  13048.9  113.518
 23.3236  12609.9  112.139
 23.5216  12500.9  111.312
 23.7196  12394.5  110.788
 23.9176  12288.6  110.054
 24.1156  12178  110.041
 24.3136  11879.8  109.443
 24.5116  11942.5  109.256
 24.7096  11692.4  107.923
 24.9076  11584.2  107.45
 25.1056  11223.9  106.229
 25.3036  11242.8  105.837
 25.5016  11272.8  106.02
 25.6996  11178.1  105.151
 25.8976  11185.7  105.627
 26.0956  11200.5  105.731
 26.2936  10984.7  104.331
 26.4916  11130.4  104.911
 26.6896  10837.2  103.817
 26.8876  10619.4  102.618
 27.0856  10809  103.596
 27.2836  10578  102.364
 27.4816  10442.4  101.634
 27.6796  10308.9  101.367
 27.8776  10471  102.013
 28.0756  10361.6  101.772
 28.2736  10280.4  100.95
 28.4716  10067.5  99.9405
 28.6696  10206.3  100.477
 28.8676  9773.83  98.6657
 29.0656  9775.53  98.6591
 29.2636  9790.01  98.5176
 29.4616  9706.91  98.2958
 29.6596  9655.35  97.6029
 29.8576  9575.01  97.8816
 30.0556  9794.38  98.8841
 30.2536  9735.54  98.3679
 30.4516  9575.92  97.2163
 30.6496  9627.56  97.2024
 30.8476  9444.01  96.7084
 31.0456  9389.65  96.3872
 31.2436  9361.41  95.5101
 31.4416  9297.86  95.3426
 31.6396  9520.49  96.5216
 31.8376  9382.11  95.36
 32.0356  9319.91  95.6139
 32.2336  9084.19  93.7879
 32.4316  9090.31  94.2392
 32.6296  8942.49  93.3081
 32.8276  9005.49  93.4091
 33.0256  9014.49  93.5402
 33.2236  8934.99  93.2669
 33.4216  8965.41  93.134
 33.6196  8866.07  92.8901
 33.8176  8925.65  93.3655
 34.0156  8768.59  92.1622
 34.2136  8693.44  91.8024
 34.4116  8645.22  91.7057
 34.6096  8649.56  91.6095
 34.8076  8590.95  91.6958
 35.0056  8628.93  91.596
 35.2036  8560.28  91.4337
 35.4016  8532  91.2152
 35.5996  8546.48  91.3244
 35.7976  8557.21  91.6587
 35.9956  8515.92  91.0856
 36.1936  8493.59  90.8303
 36.3916  8342.36  90.1918
 36.5896  8407.31  91.5116
 36.7876  8276.98  90.2218
 36.9856  8314.89  90.4579
 37.1836  8246.86  89.1826
 37.3816  8310.43  89.9053
 37.5796  8163.38  90.8185
 37.7776  8013.81  88.3576
 37.9756  8121.78  88.8375
 38.1736  8219.55  89.5776
 38.3716  8143.47  89.4407
 38.5696  8014.24  89.0948
 38.7676  7904.52  87.972
 38.9656  7908.56  87.6306
 39.1636  7915.39  87.9384
 39.3616  7970.58  88.1654
 39.5596  7966.15  89.0087
 39.7576  7842.5  87.6943
 39.9556  7935.38  87.8533
 40.1536  8092.1  88.924
 40.3516  8129.01  89.1262
 40.5496  8127.06  89.3805
 40.7476  7950.63  88.4164
 40.9456  8082.62  88.896
 41.1436  8094.75  88.676
 41.3416  7953.93  88.245
 41.5396  7997.28  88.293
 41.7376  7995.81  88.5489
 41.9356  7952.32  88.1652
 42.1336  7840.8  87.6866
 42.3316  7879.51  88.111
 42.5296  7900.26  87.7356
 42.7276  7949.51  88.2507
 42.9256  7956.35  88.1603
 43.1236  7811.52  87.4618
 43.3216  7824.46  87.2885
 43.5196  7693.97  86.6108
 43.7176  7662.24  86.824
 43.9156  7701.58  86.9687
 44.1136  7548.83  85.6578
 44.3116  7562.11  85.7508
 44.5096  7535.54  85.9026
 44.7076  7538.12  85.8487
 44.9056  7579.23  85.9543
 45.1036  7467.75  84.9473
 45.3016  7354.11  84.794
 45.4996  7403.54  85.0179
 45.6976  7380.63  85.0697
 45.8956  7406.83  85.0035
 46.0936  7541.03  85.7736
 46.2916  7381.7  84.8421
 46.4896  7359.87  84.7478
 46.6876  7370.05  85.524
 46.8856  7251.41  84.106
 47.0836  7175.74  83.9135
 47.2816  7153.67  83.6609
 47.4796  7284.54  84.5252
 47.6776  7030.8  83.9866
 47.8756  7033  83.1814
 48.0736  7121.75  84.1576
 48.2716  6944.78  82.9279
 48.4696  7069.87  83.2512
 48.6676  7080.41  83.9114
 48.8656  7044.3  83.4209
 49.0636  7016.02  83.2001
 49.2616  6899.81  82.5523
 49.4596  6910.8  82.1845
 49.6576  6866.55  82.1438
 49.8556  6767.56  81.5663
 50.0536  6820.32  82.3235
 50.2516  6866.11  82.7361
 50.4496  6764.27  81.7693
 50.6476  6907.63  82.3237
 50.8456  6799.75  81.7515
 51.0436  6736.6  81.8291
 51.2416  6702.75  81.3024
 51.4396  6528.27  80.6263
 51.6376  6643.14  81.1501
 51.8356  6454.9  79.6294
 52.0336  6483.91  80.3219
 52.2316  6378.98  80.0135
 52.4296  6531.64  80.6605
 52.6276  6487.5  80.5056
 52.8256  6554.39  80.4584
 53.0236  6377.67  79.9899
 53.2216  6366.15  79.9517
 53.4196  6319.08  79.5787
 53.6176  6309.48  79.9918
 53.8156  6243.55  79.2445
 54.0136  6322.74  79.9502
 54.2116  6326.59  79.6249
 54.4096  6276.21  79.3581
 54.6076  6229.25  79.408
 54.8056  6233.73  79.2243
 55.0036  6263.05  79.807
 55.2016  6168.15  78.7424
 55.3996  6217.91  79.0361
 55.5976  6274.1  79.5797
 55.7956  6209.65  78.98
 55.9936  6232.43  79.2547
 56.1916  6159  78.8093
 56.3896  6253.93  79.4129
 56.5876  6111.99  79.0496
 56.7856  6157.7  78.833
 56.9836  6174.44  78.7201
 57.1816  6272.87  79.7253
 57.3796  6178.53  78.9178
 57.5776  6209.02  79.052
 57.7756  6201.13  79.6408
 57.9736  6183.92  79.2022
 58.1716  6169.08  79.3579
 58.3696  6034.5  78.2271
 58.5676  6153.57  78.469
 58.7656  6176.7  79.3006
 58.9636  6204.94  79.5178
 59.1616  6089.56  78.8948
 59.3596  6204.96  78.9224
 59.5576  6395.41  80.1848
 59.7556  6276.03  79.8594
 59.9536  6232.98  79.4823
 60.1516  6226.54  80.3034
 60.1996  0.0000000E+00  0.0000000E+00

File: 17_Da_f00071.xye
# /beamlines/bl04/projects/cycle2025-II/20250340211-lsimonelli/DATA/IS17_D/17_Da_f00071.xye : mythproc.py merge -s 0.006 -l 0.5 -f /beamlines/bl04/inhouse/ff/FlatField/ff_20Nov2024rod8mm60s_17keV.raw -b True -c true -o xye /beamlines/bl04/projects/cycle2025-II/20250340211-lsimonelli/DATA/IS17_D/17_Da_00071.dat
# IsMon = [6784119, 6789758, 6787131]  IsPos = [-1.5000, -2.4884, -3.4988]
# Wave = 0.4962  CalPath /beamlines/bl04/projects/cycle2025-II/20250340211-lsimonelli/DATA/Align/Si_Pos1_25keV_f00001.cal
# Date = 2025-09-24_13:19:32 Dt = 4.8000  Bin = 0.0060  <imon> = 6787003 +/- 2304 (Min/Max) 6784119 / 6789758
# icurr 252.7282  mocoIn 1.7239E-05  mocoOut 0.8089  i15 7.10952e+06  imon 6.787e+06  i7 4.3333  iEMpd_timer 4.8000  iEMpd_1 3.5527E-08  iEMpd_2 7.8976E-08  iEMpd_3 1.6609E-08  iEMpd_4 4.7385E-08  iEMhp_timer 4.8000  iEMhp_1 4.9361E-06  iEMhp_2 -2.4449E-08  iEMhp_3 -2.3381E-08  iEMhp_4 -2.0238E-08
#      9776
 1.7416  69194.7  263.18
 1.9396  45189.5  212.947
 2.1376  31561.6  177.97
 2.3356  28622.5  169.125
 2.5336  28332.5  168.859
 2.7316  25063.9  158.896
 2.9296  23702.9  154.686
 3.1276  23287.7  152.883
 3.3256  22940.2  151.4
 3.5236  24802.5  157.23
 3.7216  22621.1  151.384
 3.9196  22646.7  150.704
 4.1176  22153.9  148.839
 4.3156  23451.2  153.292
 4.5136  26445.8  161.755
 4.7116  27031.5  164.677
 4.9096  26374.6  162.104
 5.1076  26001.3  161.53
 5.3056  26322.1  162.248
 5.5036  25935.7  160.94
 5.7016  26520.4  162.722
 5.8996  27170.3  163.921
 6.0976  27916.1  167.598
 6.2956  28301.8  168.078
 6.4936  29051.7  169.49
 6.6916  29427.6  171.579
 6.8896  30490.3  174.502
 7.0876  31359.1  177.63
 7.2856  31157.8  176.193
 7.4836  31868.3  177.528
 7.6816  32607.2  180.109
 7.8796  33983.5  183.845
 8.0776  37818.3  194.95
 8.2756  38326.2  194.846
 8.4736  38299.3  194.581
 8.6716  37842.1  194.045
 8.8696  38275  195.678
 9.0676  37667.2  193.473
 9.2656  35585.4  188.736
 9.4636  35133.9  185.941
 9.6616  34542.2  185.149
 9.8596  33010.7  180.448
 10.0576  31532.8  177.017
 10.2556  30324.3  174.035
 10.4536  33188  181.649
 10.6516  34623.4  185.761
 10.8496  28101.1  166.76
 11.0476  27914.8  166.227
 11.2456  29866.2  172.502
 11.4436  27297.3  164.074
 11.6416  26334.7  161.516
 11.8396  24958.5  157.449
 12.0376  24813.8  156.625
 12.2356  26038.8  160.851
 12.4336  24933.5  156.946
 12.6316  23843.7  153.754
 12.8296  24724.5  156.195
 13.0276  24911.7  156.955
 13.2256  24499.7  156.032
 13.4236  24589.8  156.082
 13.6216  24576.3  156.062
 13.8196  25096.2  157.462
 14.0176  24182.5  154.85
 14.2156  23661.9  152.218
 14.4136  22364.4  149.359
 14.6116  22161.5  147.884
 14.8096  21350.9  145.143
 15.0076  20427  145.796
 15.2056  19804.1  139.376
 15.4036  19104.5  137.716
 15.6016  18508.7  134.642
 15.7996  18325.1  134.263
 15.9976  17498.7  134.137
 16.1956  17165.6  130.743
 16.3936  16565  127.614
 16.5916  16413  127.661
 16.7896  16580.3  128.367
 16.9876  16359.8  128.969
 17.1856  16145.2  126.471
 17.3836  15270.6  122.907
 17.5816  15103.1  122.712
 17.7796  15196.3  123.026
 17.9776  15293  124.225
 18.1756  16129.6  126.227
 18.3736  16109.4  126.672
 18.5716  14709.5  120.799
 18.7696  14624.7  120.018
 18.9676  14264.4  118.341
 19.1656  14209.6  118.67
 19.3636  14122.9  118.511
 19.5616  14188.8  118.961
 19.7596  14213.1  118.467
 19.9576  14853.1  121.156
 20.1556  13863.3  117.562
 20.3536  13651  116.039
 20.5516  13492.7  115.815
 20.7496  13166  114.26
 20.9476  13592.9  115.938
 21.1456  13652.6  116.517
 21.3436  13092.8  114.056
 21.5416  13034.2  113.806
 21.7396  12848.7  112.833
 21.9376  12882.1  112.753
 22.1356  13114.2  114.032
 22.3336  12928.5  113.358
 22.5316  12887.4  113.258
 22.7296  12739  111.978
 22.9276  12753.2  112.719
 23.1256  13255.2  114.385
 23.3236  12638.1  112.254
 23.5216  12584.3  111.683
 23.7196  12569.5  111.787
 23.9176  12480  110.921
 24.1156  12219.5  110.226
 24.3136  11976.9  109.91
 24.5116  12165.6  110.293
 24.7096  11810.4  108.488
 24.9076  11471.3  106.949
 25.1056  11269.3  106.463
 25.3036  11302  106.118
 25.5016  11495.3  107.061
 25.6996  11264.5  105.56
 25.8976  11372.2  106.502
 26.0956  11282.4  106.105
 26.2936  11126.4  105.004
 26.4916  11218.4  105.329
 26.6896  10829.2  103.781
 26.8876  10633.9  102.692
 27.0856  10883.2  103.943
 27.2836  10614.2  102.537
 27.4816  10620.6  102.501
 27.6796  10435.8  101.988
 27.8776  10575.1  102.524
 28.0756  10386.9  101.89
 28.2736  10355.3  101.31
 28.4716  10118.9  100.198
 28.6696  10033.2  99.6221
 28.8676  9990.01  99.7581
 29.0656  9810.12  98.8354
 29.2636  9787.55  98.5169
 29.4616  9765.63  98.579
 29.6596  9716.41  97.8949
 29.8576  9687.84  98.4408
 30.0556  9917.69  99.4664
 30.2536  9770  98.5235
 30.4516  9644.61  97.5603
 30.6496  9633.7  97.2314
 30.8476  9413.95  96.5537
 31.0456  9407.19  96.4858
 31.2436  9411.27  95.7716
 31.4416  9313.92  95.4385
 31.6396  9679.88  97.3471
 31.8376  9327.67  95.1061
 32.0356  9266.56  95.3592
 32.2336  9063.31  93.7062
 32.4316  9262.08  95.1271
 32.6296  9085.18  94.0491
 32.8276  9097.11  93.88
 33.0256  8914.84  93.0234
 33.2236  9046.39  93.8536
 33.4216  8965.24  93.117
 33.6196  8902.48  93.0832
 33.8176  9101.68  94.283
 34.0156  8906.06  92.8771
 34.2136  8833.64  92.5487
 34.4116  8729.31  92.1442
 34.6096  8755.22  92.1653
 34.8076  8761.02  92.6128
 35.0056  8778.62  92.3847
 35.2036  8589.75  91.5968
 35.4016  8689.57  92.0446
 35.5996  8533.44  91.2533
 35.7976  8526.64  91.5001
 35.9956  8709.79  92.111
 36.1936  8455.21  90.6188
 36.3916  8439.41  90.7179
 36.5896  8486.73  91.9466
 36.7876  8343.6  90.5703
 36.9856  8406.92  90.9415
 37.1836  8213.29  88.988
 37.3816  8442.62  90.5933
 37.5796  8262.18  91.3603
 37.7776  8243.37  89.6281
 37.9756  8213  89.343
 38.1736  8382.61  90.4626
 38.3716  8315.32  90.3784
 38.5696  8126.32  89.717
 38.7676  7925.44  88.1029
 38.9656  8004.8  88.1793
 39.1636  7982.19  88.3251
 39.3616  8070.23  88.7265
 39.5596  7983.28  89.1036
 39.7576  7931.53  88.1864
 39.9556  8061.07  88.5511
 40.1536  8196.59  89.4962
 40.3516  8049.99  88.7038
 40.5496  8068.22  89.0616
 40.7476  8090.77  89.188
 40.9456  8149.46  89.2608
 41.1436  8110.85  88.7722
 41.3416  8057.35  88.8106
 41.5396  8057.59  88.6247
 41.7376  8080.96  89.0206
 41.9356  7932.94  88.0565
 42.1336  8098.12  89.1206
 42.3316  7934.85  88.4118
 42.5296  8035.24  88.483
 42.7276  7961.88  88.3212
 42.9256  7966.03  88.2114
 43.1236  7791.9  87.3522
 43.3216  7900.35  87.7083
 43.5196  7773.12  87.0559
 43.7176  7783.64  87.5095
 43.9156  7723.97  87.0769
 44.1136  7656.41  86.2514
 44.3116  7707.95  86.557
 44.5096  7708.17  86.8672
 44.7076  7539.41  85.8415
 44.9056  7516.21  85.5946
 45.1036  7546.94  85.3954
 45.3016  7414.05  85.1378
 45.4996  7519.54  85.6795
 45.6976  7356.92  84.921
 45.8956  7472.57  85.3906
 46.0936  7506.21  85.3473
 46.2916  7459.89  85.3064
 46.4896  7420.68  85.1201
 46.6876  7284.76  85.0443
 46.8856  7326.54  84.5403
 47.0836  7275.41  84.495
 47.2816  7257.82  84.2673
 47.4796  7245.38  84.3062
 47.6776  7080.46  84.2694
 47.8756  7108.56  83.6242
 48.0736  7198.67  84.6149
 48.2716  7064.69  83.6371
 48.4696  7056.35  83.1873
 48.6676  7027.71  83.5998
 48.8656  7196.61  84.3195
 49.0636  7133.62  83.8908
 49.2616  6940.55  82.7905
 49.4596  6975.67  82.5739
 49.6576  6990  82.8812
 49.8556  7022.89  83.0898
 50.0536  6896.82  82.7834
 50.2516  6938.99  83.174
 50.4496  6842.05  82.2391
 50.6476  6813.93  81.7617
 50.8456  6870.23  82.1734
 51.0436  6615.99  81.0786
 51.2416  6665.12  81.0569
 51.4396  6589.68  80.9851
 51.6376  6595.35  80.8491
 51.8356  6578.57  80.3808
 52.0336  6479.75  80.2939
 52.2316  6642.02  81.6435
 52.4296  6667.29  81.4813
 52.6276  6550.92  80.8862
 52.8256  6550.38  80.432
 53.0236  6489.16  80.6995
 53.2216  6383.53  80.0496
 53.4196  6361.63  79.8552
 53.6176  6378.27  80.4428
 53.8156  6346.67  79.9163
 54.0136  6449.94  80.7421
 54.2116  6362.9  79.8584
 54.4096  6451.72  80.4578
 54.6076  6379.56  80.3622
 54.8056  6240.3  79.2664
 55.0036  6300.13  79.9146
 55.2016  6258.44  79.2463
 55.3996  6329.35  79.7257
 55.5976  6282.03  79.6282
 55.7956  6262.91  79.3232
 55.9936  6339.06  79.9429
 56.1916  6300.34  79.7143
 56.3896  6262.14  79.4587
 56.5876  6228.85  79.8055
 56.7856  6190.43  79.042
 56.9836  6125.8  78.4146
 57.1816  6243.81  79.5476
 57.3796  6203.5  79.0801
 57.5776  6226.18  79.1603
 57.7756  6169.1  79.4346
 57.9736  6216.07  79.4076
 58.1716  6224.33  79.6998
 58.3696  6157.52  79.0157
 58.5676  6171.91  78.5772
 58.7656  6246.49  79.7354
 58.9636  6331.94  80.3133
 59.1616  6227.23  79.7691
 59.3596  6313.98  79.5844
 59.5576  6301.92  79.5661
 59.7556  6203.27  79.3647
 59.9536  6361.5  80.2668
 60.1516  6098.09  79.4403
 60.1996  0.0000000E+00  0.0000000E+00