Folder: echemistpy/docs/examples/opeando_xrd/IS17_D/Data/IS17_D (part 13)

File: 17_Da_f00039.xye
# /beamlines/bl04/projects/cycle2025-II/20250340211-lsimonelli/DATA/IS17_D/17_Da_f00039.xye : mythproc.py merge -s 0.006 -l 0.5 -f /beamlines/bl04/inhouse/ff/FlatField/ff_20Nov2024rod8mm60s_17keV.raw -b True -c true -o xye /beamlines/bl04/projects/cycle2025-II/20250340211-lsimonelli/DATA/IS17_D/17_Da_00039.dat
# IsMon = [6751419, 6751891, 6765405]  IsPos = [-1.5000, -2.4885, -3.4986]
# Wave = 0.4962  CalPath /beamlines/bl04/projects/cycle2025-II/20250340211-lsimonelli/DATA/Align/Si_Pos1_25keV_f00001.cal
# Date = 2025-09-24_04:25:15 Dt = 4.8000  Bin = 0.0060  <imon> = 6756238 +/- 6485 (Min/Max) 6751419 / 6765405
# icurr 251.2599  mocoIn 1.7145E-05  mocoOut 0.8036  i15 7.07384e+06  imon 6.75624e+06  i7 5.0000  iEMpd_timer 4.8000  iEMpd_1 3.4058E-08  iEMpd_2 7.7683E-08  iEMpd_3 1.5722E-08  iEMpd_4 4.7399E-08  iEMhp_timer 4.8000  iEMhp_1 4.9108E-06  iEMhp_2 -2.3908E-08  iEMhp_3 -2.3047E-08  iEMhp_4 -2.1451E-08
#      9776
 1.7416  70902.9  266.447
 1.9396  46525.5  216.109
 2.1376  32899.5  181.73
 2.3356  29001.4  170.266
 2.5336  27645.4  166.822
 2.7316  25851.1  161.428
 2.9296  24919.6  158.659
 3.1276  23977.6  155.178
 3.3256  23771.1  154.178
 3.5236  25558.5  159.824
 3.7216  23186.2  153.263
 3.9196  22946.1  151.687
 4.1176  22498.6  149.993
 4.3156  23838.4  154.521
 4.5136  26238.8  161.142
 4.7116  27273.8  165.409
 4.9096  26505.7  162.502
 5.1076  26189.8  162.121
 5.3056  26517.3  162.741
 5.5036  26177.7  161.689
 5.7016  26611.9  163.002
 5.8996  27132.5  163.8
 6.0976  27873.7  167.476
 6.2956  28403.5  168.374
 6.4936  29030.1  169.43
 6.6916  29482.1  171.737
 6.8896  30058.7  173.269
 7.0876  31411.3  177.78
 7.2856  31029.5  175.831
 7.4836  31481.3  176.443
 7.6816  32261.4  179.149
 7.8796  33453  182.392
 8.0776  34830.4  187.078
 8.2756  36574.2  190.291
 8.4736  37120.6  191.551
 8.6716  36699  191.12
 8.8696  36231.7  190.324
 9.0676  35230.7  187.064
 9.2656  34152  184.847
 9.4636  33852.7  182.455
 9.6616  33070.1  181.082
 9.8596  31778  177.107
 10.0576  30007.8  172.752
 10.2556  28776.4  169.598
 10.4536  27987.1  166.865
 10.6516  27270.9  164.903
 10.8496  26348.8  161.457
 11.0476  25871.6  159.993
 11.2456  25010.4  157.87
 11.4436  24960.4  156.894
 11.6416  26148.8  160.946
 11.8396  23898.6  154.077
 12.0376  23933.6  153.791
 12.2356  23443.7  152.657
 12.4336  23256.1  151.563
 12.6316  22920.7  150.75
 12.8296  23148.9  151.136
 13.0276  23886.7  153.69
 13.2256  23855.6  153.962
 13.4236  23766.8  153.44
 13.6216  23729.4  153.355
 13.8196  23899.2  153.66
 14.0176  23342.7  152.138
 14.2156  22594.2  148.747
 14.4136  21741.5  147.263
 14.6116  21424.6  145.408
 14.8096  21016.9  143.979
 15.0076  19614.6  142.884
 15.2056  19288.6  137.54
 15.4036  18432.9  135.273
 15.6016  18157.6  133.355
 15.7996  17612.3  131.588
 15.9976  16942.7  131.978
 16.1956  16559.6  128.381
 16.3936  16271.2  126.445
 16.5916  15745.2  124.998
 16.7896  15921.1  125.753
 16.9876  15782.8  126.69
 17.1856  15441.9  123.734
 17.3836  15046.8  122.043
 17.5816  14680.7  121.029
 17.7796  14377.1  119.699
 17.9776  14185.7  119.628
 18.1756  14150.1  118.228
 18.3736  13908.3  117.72
 18.5716  13909  117.466
 18.7696  13843.5  116.771
 18.9676  13520.8  115.22
 19.1656  13511.9  115.702
 19.3636  13398.9  115.442
 19.5616  13361.1  115.435
 19.7596  13342.7  114.789
 19.9576  13703.9  116.375
 20.1556  14430.9  119.942
 20.3536  13631.1  115.964
 20.5516  13118.2  114.197
 20.7496  12685.2  112.156
 20.9476  12698.5  112.062
 21.1456  12755.2  112.619
 21.3436  12590.5  111.85
 21.5416  12502  111.453
 21.7396  12349.7  110.614
 21.9376  12238.8  109.904
 22.1356  12381.8  110.684
 22.3336  12346  110.752
 22.5316  12491.3  111.508
 22.7296  12213.2  109.633
 22.9276  12267  110.535
 23.1256  12334.8  110.305
 23.3236  12640.6  112.249
 23.5216  12373.8  110.714
 23.7196  12260.6  110.384
 23.9176  11953.3  108.542
 24.1156  11903.9  108.765
 24.3136  11548.2  107.96
 24.5116  11486.7  107.208
 24.7096  11146  105.427
 24.9076  11167.6  105.546
 25.1056  10954.5  104.731
 25.3036  10828.9  103.889
 25.5016  10795.5  103.746
 25.6996  10797.8  103.351
 25.8976  10708.9  103.361
 26.0956  10692.9  103.279
 26.2936  10711.2  103.04
 26.4916  10653.1  102.635
 26.6896  10420.8  101.8
 26.8876  10331.6  101.226
 27.0856  10414.9  101.649
 27.2836  10121.4  100.271
 27.4816  10032.3  99.6244
 27.6796  10030.1  99.9853
 27.8776  9955  99.4765
 28.0756  9908.65  99.5118
 28.2736  9771.47  98.4199
 28.4716  9504.66  97.1141
 28.6696  9717.41  98.0391
 28.8676  9586.82  97.7176
 29.0656  9524.84  97.3881
 29.2636  9468.2  96.8205
 29.4616  9479.54  97.117
 29.6596  9374.06  96.1479
 29.8576  9171.56  95.7756
 30.0556  9347.67  96.5511
 30.2536  9506.31  97.179
 30.4516  9237.13  95.4526
 30.6496  9107.94  94.516
 30.8476  9134.35  95.0879
 31.0456  9153.72  95.1637
 31.2436  9045.44  93.8801
 31.4416  9009.71  93.8974
 31.6396  9033.21  94.0708
 31.8376  8889.58  92.8773
 32.0356  8889.41  93.4278
 32.2336  8713.94  91.9072
 32.4316  8722.48  92.3248
 32.6296  8730.13  92.1308
 32.8276  8879.83  92.7545
 33.0256  8634.18  91.5462
 33.2236  8612.57  91.5772
 33.4216  8685.5  91.6417
 33.6196  8651.11  91.7711
 33.8176  8621.69  91.7644
 34.0156  8541.02  90.9464
 34.2136  8562.73  91.121
 34.4116  8453.32  90.6744
 34.6096  8387.29  90.2016
 34.8076  8251.18  89.8712
 35.0056  8498.13  90.8879
 35.2036  8319.96  90.1492
 35.4016  8297.65  89.9472
 35.5996  8218.62  89.5549
 35.7976  8246.37  89.9823
 35.9956  8255.61  89.6759
 36.1936  8179  89.1337
 36.3916  8128.43  89.0259
 36.5896  8072.1  90.1459
 36.7876  8059.42  89.0063
 36.9856  7996.77  88.687
 37.1836  8008.82  87.8685
 37.3816  8154.34  89.0128
 37.5796  7955.46  89.6463
 37.7776  7719.92  86.7223
 37.9756  7765.24  86.8622
 38.1736  7974.78  88.2125
 38.3716  7841.14  87.7405
 38.5696  7815.05  87.9812
 38.7676  7606.19  86.3359
 38.9656  7681.6  86.4096
 39.1636  7680.6  86.6327
 39.3616  7755.21  87.0166
 39.5596  7574.12  86.7936
 39.7576  7690.32  86.8448
 39.9556  7790.53  87.0461
 40.1536  7813.45  87.3684
 40.3516  7798.14  87.3802
 40.5496  7810.35  87.4182
 40.7476  7814.71  87.6566
 40.9456  7871.06  87.7254
 41.1436  7830.61  87.2259
 41.3416  7782.93  87.282
 41.5396  7611.74  86.1383
 41.7376  7716.9  86.9864
 41.9356  7640.75  86.4215
 42.1336  7570.13  86.1725
 42.3316  7517.73  86.056
 42.5296  7642.15  86.2909
 42.7276  7660.89  86.6367
 42.9256  7591.37  86.1117
 43.1236  7525.55  85.8444
 43.3216  7565.76  85.9326
 43.5196  7537.09  85.7406
 43.7176  7420.08  85.4393
 43.9156  7437.85  85.4479
 44.1136  7379.51  84.6694
 44.3116  7337.83  84.4267
 44.5096  7447.86  85.379
 44.7076  7546.27  85.8749
 44.9056  7330.68  84.5097
 45.1036  7398.69  84.5302
 45.3016  7206.04  83.9039
 45.4996  7227.38  83.9756
 45.6976  7110.9  83.4554
 45.8956  7091.44  83.2175
 46.0936  7251.46  83.9135
 46.2916  7165.63  83.6313
 46.4896  7157.02  83.6176
 46.6876  6940.91  83.0367
 46.8856  6955.75  82.4739
 47.0836  6945.14  82.5657
 47.2816  6879.79  82.0545
 47.4796  6991.2  82.8119
 47.6776  6856.88  82.9402
 47.8756  6893.92  82.3525
 48.0736  6932.21  83.0204
 48.2716  6772.38  81.8823
 48.4696  6788.11  81.5908
 48.6676  6856.34  82.5632
 48.8656  6739.01  81.5932
 49.0636  6775.37  81.7668
 49.2616  6625.86  80.8877
 49.4596  6683.74  80.8147
 49.6576  6668.51  80.9446
 49.8556  6648.51  80.846
 50.0536  6571.05  80.8077
 50.2516  6621.8  81.2232
 50.4496  6574.72  80.6288
 50.6476  6537.29  80.0864
 50.8456  6530.24  80.1267
 51.0436  6394.05  79.6999
 51.2416  6511.4  80.0988
 51.4396  6293.56  79.1423
 51.6376  6351.03  79.3462
 51.8356  6420.12  79.4167
 52.0336  6237.1  78.7561
 52.2316  6228.37  79.0346
 52.4296  6347.08  79.4806
 52.6276  6232.74  78.8649
 52.8256  6270.69  78.699
 53.0236  6219.23  79.0319
 53.2216  6158.42  78.6547
 53.4196  6027.89  77.7589
 53.6176  6125.47  78.857
 53.8156  6177.86  78.8694
 54.0136  6111.22  78.5824
 54.2116  6070.65  78.0065
 54.4096  6235.05  79.1049
 54.6076  6072.17  78.3998
 54.8056  6072.03  78.1894
 55.0036  6027.3  78.1664
 55.2016  6088.09  78.1588
 55.3996  6048.12  77.9405
 55.5976  5982.26  77.7017
 55.7956  5924.87  77.1513
 55.9936  6008.2  77.8344
 56.1916  5992.06  77.7406
 56.3896  6050.66  78.1021
 56.5876  5952.28  78.0121
 56.7856  5963.39  77.5666
 56.9836  5839.22  76.5567
 57.1816  6009.99  78.0444
 57.3796  5942.14  77.3701
 57.5776  5950.07  77.3794
 57.7756  5883.41  77.5705
 57.9736  5892.67  77.3076
 58.1716  5954.66  77.9453
 58.3696  5932.17  77.5616
 58.5676  5907.93  76.8877
 58.7656  6036.33  78.3703
 58.9636  6086.16  78.7292
 59.1616  5978.19  78.1416
 59.3596  6015.21  77.624
 59.5576  6106.62  78.2711
 59.7556  5887.15  77.2644
 59.9536  6217.92  79.3027
 60.1516  5854.48  77.7854
 60.1996  0.0000000E+00  0.0000000E+00

File: 17_Da_f00040.xye
# /beamlines/bl04/projects/cycle2025-II/20250340211-lsimonelli/DATA/IS17_D/17_Da_f00040.xye : mythproc.py merge -s 0.006 -l 0.5 -f /beamlines/bl04/inhouse/ff/FlatField/ff_20Nov2024rod8mm60s_17keV.raw -b True -c true -o xye /beamlines/bl04/projects/cycle2025-II/20250340211-lsimonelli/DATA/IS17_D/17_Da_00040.dat
# IsMon = [6781681, 6786601, 6787418]  IsPos = [-1.4999, -2.4885, -3.4988]
# Wave = 0.4962  CalPath /beamlines/bl04/projects/cycle2025-II/20250340211-lsimonelli/DATA/Align/Si_Pos1_25keV_f00001.cal
# Date = 2025-09-24_04:41:47 Dt = 4.8000  Bin = 0.0060  <imon> = 6785233 +/- 2534 (Min/Max) 6781681 / 6787418
# icurr 252.2233  mocoIn 1.7212E-05  mocoOut 0.8076  i15 7.10019e+06  imon 6.78523e+06  i7 6.0000  iEMpd_timer 4.8000  iEMpd_1 3.5356E-08  iEMpd_2 7.7865E-08  iEMpd_3 1.6639E-08  iEMpd_4 5.0230E-08  iEMhp_timer 4.8000  iEMhp_1 4.9287E-06  iEMhp_2 -2.6554E-08  iEMhp_3 -2.3001E-08  iEMhp_4 -2.1997E-08
#      9776
 1.7416  70984.4  266.575
 1.9396  46595.5  216.242
 2.1376  33432.8  183.179
 2.3356  29456.7  171.58
 2.5336  27484  166.319
 2.7316  26043.7  161.98
 2.9296  25100.5  159.193
 3.1276  24518.5  156.89
 3.3256  23997.9  154.864
 3.5236  25553.9  159.769
 3.7216  23313  153.679
 3.9196  22740.5  151.022
 4.1176  22776.8  150.917
 4.3156  24084.7  155.341
 4.5136  26264.4  161.204
 4.7116  27312.9  165.529
 4.9096  26701.7  163.099
 5.1076  26321.7  162.525
 5.3056  26652.3  163.257
 5.5036  26245.8  161.992
 5.7016  26805.1  163.593
 5.8996  27138.8  163.827
 6.0976  28125.4  168.224
 6.2956  28366.5  168.267
 6.4936  29210.8  169.95
 6.6916  29612.1  172.116
 6.8896  30396  174.239
 7.0876  31414.1  177.859
 7.2856  31106.1  176.047
 7.4836  31707.7  177.081
 7.6816  32169.4  178.893
 7.8796  33858.2  183.502
 8.0776  35281.9  188.295
 8.2756  36902.6  191.185
 8.4736  37446.2  192.395
 8.6716  36458.2  190.467
 8.8696  36315.2  190.596
 9.0676  35498.2  187.81
 9.2656  34563.4  186
 9.4636  33822.6  182.427
 9.6616  33246.1  181.622
 9.8596  31962.3  177.571
 10.0576  30013.6  172.715
 10.2556  29200  170.792
 10.4536  27967.8  166.767
 10.6516  27411.6  165.274
 10.8496  26508.8  161.964
 11.0476  25773  159.672
 11.2456  25285.3  158.721
 11.4436  25108.6  157.355
 11.6416  26598.2  162.325
 11.8396  24249.8  155.201
 12.0376  23910.1  153.72
 12.2356  23552.4  153.015
 12.4336  23356.5  151.898
 12.6316  23116.3  151.385
 12.8296  23545.2  152.421
 13.0276  24013.5  154.098
 13.2256  24063.5  154.631
 13.4236  24077.1  154.448
 13.6216  23920.5  153.967
 13.8196  23791.8  153.315
 14.0176  23421.5  152.392
 14.2156  22830.8  149.524
 14.4136  21950.2  147.971
 14.6116  21593.3  145.98
 14.8096  20986.8  143.893
 15.0076  19974.4  144.181
 15.2056  19641.3  138.792
 15.4036  18518  135.594
 15.6016  18228.1  133.616
 15.7996  17825.7  132.412
 15.9976  16998.7  132.228
 16.1956  16540.9  128.333
 16.3936  16166.1  126.06
 16.5916  15847  125.434
 16.7896  15907.6  125.726
 16.9876  15699.5  126.345
 17.1856  15717.7  124.795
 17.3836  15321.7  123.116
 17.5816  14538.5  120.412
 17.7796  14285.5  119.288
 17.9776  14148.8  119.479
 18.1756  14410.7  119.313
 18.3736  14021.2  118.184
 18.5716  13933.7  117.573
 18.7696  13839.1  116.747
 18.9676  13510.7  115.176
 19.1656  13599.7  116.099
 19.3636  13522.5  115.963
 19.5616  13389.7  115.56
 19.7596  13493.7  115.43
 19.9576  13701.1  116.358
 20.1556  14580.3  120.559
 20.3536  13799.7  116.671
 20.5516  13351.5  115.209
 20.7496  12932.3  113.326
 20.9476  12668.3  111.919
 21.1456  12964  113.54
 21.3436  12602.1  111.901
 21.5416  12501.3  111.443
 21.7396  12497.1  111.283
 21.9376  12437.3  110.78
 22.1356  12460  111.002
 22.3336  12417.2  111.076
 22.5316  12452.6  111.339
 22.7296  12375.8  110.368
 22.9276  12176.6  110.132
 23.1256  12596.2  111.497
 23.3236  12308.7  110.79
 23.5216  12314.6  110.469
 23.7196  12217.6  109.986
 23.9176  12113.3  109.28
 24.1156  11931.2  108.912
 24.3136  11558.2  107.979
 24.5116  11650.3  107.941
 24.7096  11391.1  106.553
 24.9076  11012.7  104.795
 25.1056  11102.7  105.402
 25.3036  10951.8  104.464
 25.5016  10875  104.135
 25.6996  10857.5  103.636
 25.8976  10619.3  102.922
 26.0956  10651.2  103.09
 26.2936  10738.3  103.161
 26.4916  10747.2  103.087
 26.6896  10542.4  102.394
 26.8876  10360.8  101.364
 27.0856  10378.6  101.454
 27.2836  10107.4  100.06
 27.4816  10134.9  100.133
 27.6796  10052.4  100.098
 27.8776  10011  99.7543
 28.0756  9923.94  99.5926
 28.2736  9773.39  98.4272
 28.4716  9789.43  98.556
 28.6696  9608.16  97.4899
 28.8676  9533.38  97.4558
 29.0656  9474.62  97.1319
 29.2636  9544.45  97.206
 29.4616  9535.23  97.4063
 29.6596  9472.72  96.6572
 29.8576  9361.31  96.7656
 30.0556  9337.24  96.5191
 30.2536  9418.91  96.7306
 30.4516  9297.3  95.7844
 30.6496  9221.73  95.1226
 30.8476  9092.07  94.8823
 31.0456  9182.3  95.3246
 31.2436  9106.77  94.2089
 31.4416  8918.91  93.4036
 31.6396  8982.05  93.7793
 31.8376  9035.39  93.6025
 32.0356  8755.71  92.7032
 32.2336  8840.66  92.5518
 32.4316  8782.58  92.6348
 32.6296  8671.99  91.8269
 32.8276  8883.01  92.7881
 33.0256  8674.5  91.7606
 33.2236  8669.2  91.8799
 33.4216  8757.47  92.035
 33.6196  8833.07  92.7202
 33.8176  8604.56  91.6742
 34.0156  8551.38  91.0036
 34.2136  8461.75  90.5812
 34.4116  8462.71  90.7257
 34.6096  8403.56  90.2914
 34.8076  8322.7  90.258
 35.0056  8384.06  90.2872
 35.2036  8408.55  90.6287
 35.4016  8379.34  90.3836
 35.5996  8265.48  89.8077
 35.7976  8196.98  89.7136
 35.9956  8245.45  89.6186
 36.1936  8109.63  88.7523
 36.3916  8127.67  89.0237
 36.5896  8129.66  90.4667
 36.7876  8044.62  88.9293
 36.9856  7927.12  88.2985
 37.1836  7985.24  87.743
 37.3816  8067.9  88.556
 37.5796  7940.97  89.5695
 37.7776  7801.51  87.1862
 37.9756  7818.5  87.1697
 38.1736  7961.57  88.155
 38.3716  7827.09  87.6801
 38.5696  7765.05  87.6963
 38.7676  7698.34  86.8404
 38.9656  7635.32  86.1267
 39.1636  7732.6  86.9076
 39.3616  7780.6  87.1326
 39.5596  7616.98  87.03
 39.7576  7657.89  86.6541
 39.9556  7739.74  86.7637
 40.1536  7847.28  87.5662
 40.3516  7792.13  87.2645
 40.5496  7841.22  87.5934
 40.7476  7890.28  88.0769
 40.9456  7853.89  87.6268
 41.1436  7851.86  87.3388
 41.3416  7821.22  87.4965
 41.5396  7696.13  86.6109
 41.7376  7782.47  87.3553
 41.9356  7720.24  86.864
 42.1336  7743.74  87.151
 42.3316  7668.89  86.9172
 42.5296  7732.58  86.8023
 42.7276  7623.32  86.4231
 42.9256  7729.84  86.8935
 43.1236  7664.52  86.6351
 43.3216  7620.91  86.243
 43.5196  7558.11  85.8491
 43.7176  7554.45  86.2183
 43.9156  7392.47  85.1914
 44.1136  7413  84.8651
 44.3116  7508.28  85.4223
 44.5096  7495.48  85.6589
 44.7076  7383.48  84.9471
 44.9056  7395.35  84.8994
 45.1036  7313.21  84.0583
 45.3016  7270.93  84.3083
 45.4996  7156.02  83.5786
 45.6976  7112.1  83.4893
 45.8956  7188.12  83.7615
 46.0936  7240.87  84.0774
 46.2916  7124.73  83.3742
 46.4896  7232.19  84.0242
 46.6876  7176.08  84.4125
 46.8856  7038.29  82.8562
 47.0836  7077.59  83.343
 47.2816  6872.12  81.9974
 47.4796  7071.62  83.2864
 47.6776  6869.41  83.0099
 47.8756  6975.39  82.8353
 48.0736  6931.64  83.0235
 48.2716  6802.68  82.0648
 48.4696  6860.89  82.0201
 48.6676  6839.54  82.4745
 48.8656  6920.65  82.686
 49.0636  6898.19  82.509
 49.2616  6693.63  81.3025
 49.4596  6757.35  81.2542
 49.6576  6729.89  81.3155
 49.8556  6722.75  81.2957
 50.0536  6706.93  81.6377
 50.2516  6660  81.4599
 50.4496  6651.11  81.0879
 50.6476  6748.08  81.3663
 50.8456  6643.62  80.8156
 51.0436  6530.26  80.5505
 51.2416  6511.93  80.1167
 51.4396  6332.02  79.3861
 51.6376  6427.19  79.8127
 51.8356  6389.99  79.2202
 52.0336  6441.85  80.0549
 52.2316  6249.41  79.1913
 52.4296  6420.15  79.9403
 52.6276  6373.6  79.7752
 52.8256  6369.43  79.3249
 53.0236  6286.06  79.4346
 53.2216  6269.85  79.3657
 53.4196  6049.15  77.8832
 53.6176  6161.49  79.0694
 53.8156  6074.32  78.191
 54.0136  6141.17  78.7812
 54.2116  6062.59  77.9517
 54.4096  6148.37  78.5309
 54.6076  6049.86  78.2583
 54.8056  6038.27  77.9728
 55.0036  6047.53  78.4103
 55.2016  6119.47  78.4373
 55.3996  6119.69  78.4043
 55.5976  6070.47  78.2721
 55.7956  6059.18  78.0207
 55.9936  6060.29  78.1697
 56.1916  6013.9  77.8795
 56.3896  6042.99  78.0573
 56.5876  5977.11  78.1741
 56.7856  6034.08  78.0208
 56.9836  5917.2  77.0714
 57.1816  5954.84  77.684
 57.3796  6088.49  78.3446
 57.5776  5941.81  77.3196
 57.7756  5885.67  77.5878
 57.9736  5977.16  77.8665
 58.1716  6066.28  78.6772
 58.3696  5906.36  77.3865
 58.5676  5995.48  77.4394
 58.7656  6035.53  78.3775
 58.9636  6117.34  78.935
 59.1616  5935.09  77.8703
 59.3596  6108.65  78.2656
 59.5576  5978.59  77.4863
 59.7556  6075.37  78.5304
 59.9536  6147.36  78.8923
 60.1516  5890.49  78.0646
 60.1996  0.0000000E+00  0.0000000E+00