Folder: echemistpy/docs/examples/opeando_xrd/IS17_D/Data/IS17_D_fresh

Note: docs/README.md
# 文档概览

`docs/Characterization/` 目录保留了 EQCM、XRD、XPS 等实验表征资料，可在撰写技术文档或学术报告时引用。
后续若集成 Sphinx/MkDocs，可在本目录下新增 `conf.py` 或 `mkdocs.yml`。

File: 17_D_fresh_f00001.xye
# /beamlines/bl04/projects/cycle2025-II/20250340211-lsimonelli/DATA/IS17_D_fresh/17_D_fresh_f00001.xye : mythproc.py merge -s 0.006 -l 0.5 -f /beamlines/bl04/inhouse/ff/FlatField/ff_20Nov2024rod8mm60s_17keV.raw -b True -c true -o xye /beamlines/bl04/projects/cycle2025-II/20250340211-lsimonelli/DATA/IS17_D_fresh/17_D_fresh_00001.dat
# IsMon = [6743746, 6744278, 6741581]  IsPos = [-1.5000, -2.4886, -3.4988]
# Wave = 0.4962  CalPath /beamlines/bl04/projects/cycle2025-II/20250340211-lsimonelli/DATA/Align/Si_Pos1_25keV_f00001.cal
# Date = 2025-09-23_17:54:02 Dt = 4.8000  Bin = 0.0060  <imon> = 6743202 +/- 1166 (Min/Max) 6741581 / 6744278
# icurr 249.2779  mocoIn 1.7009E-05  mocoOut 0.7981  i15 7.03775e+06  imon 6.7432e+06  i7 6.3333  iEMpd_timer 4.8000  iEMpd_1 3.6455E-08  iEMpd_2 7.8435E-08  iEMpd_3 1.8115E-08  iEMpd_4 4.8079E-08  iEMhp_timer 4.8000  iEMhp_1 4.8729E-06  iEMhp_2 -2.4199E-08  iEMhp_3 -2.3698E-08  iEMhp_4 -2.0937E-08
#      9776
 1.7416  69557.5  263.803
 1.9396  45465.8  213.561
 2.1376  32233.3  179.808
 2.3356  28721.1  169.373
 2.5336  27077.7  165.035
 2.7316  25648  160.712
 2.9296  24656.8  157.758
 3.1276  24001.6  155.189
 3.3256  24005.9  154.875
 3.5236  25656.1  160.064
 3.7216  23556.5  154.486
 3.9196  23240.8  152.674
 4.1176  22997.5  151.637
 4.3156  24335.6  156.158
 4.5136  26750.6  162.688
 4.7116  27865.9  167.2
 4.9096  27245.5  164.75
 5.1076  27177  165.131
 5.3056  27363.1  165.566
 5.5036  27071.4  164.508
 5.7016  27623.7  166.071
 5.8996  28215.7  167.045
 6.0976  29208.2  171.417
 6.2956  29898.4  172.76
 6.4936  30461.9  173.561
 6.6916  31119.7  176.44
 6.8896  31974.2  178.71
 7.0876  33141.6  182.593
 7.2856  33086.2  181.564
 7.4836  33545.5  182.133
 7.6816  34415  185.027
 7.8796  36348.9  190.156
 8.0776  37816.1  194.971
 8.2756  39684.3  198.301
 8.4736  40460.1  200.023
 8.6716  40204.4  200.034
 8.8696  39644.4  199.138
 9.0676  39120.8  197.155
 9.2656  37857.3  194.657
 9.4636  37625.9  192.429
 9.6616  36711.5  190.87
 9.8596  35568.5  187.293
 10.0576  34203.5  183.943
 10.2556  32582.5  180.376
 10.4536  31058.4  175.704
 10.6516  30155.7  173.321
 10.8496  29383.9  170.505
 11.0476  28732  168.589
 11.2456  27829  167
 11.4436  27704.5  165.297
 11.6416  28847.3  169.05
 11.8396  26566.5  162.431
 12.0376  26568.5  162.047
 12.2356  26014.3  160.81
 12.4336  26125.6  160.651
 12.6316  25556  159.152
 12.8296  25871.3  159.774
 13.0276  26557.3  162.067
 13.2256  26424.1  162.036
 13.4236  26617  162.378
 13.6216  26103.4  160.825
 13.8196  26647.8  161.983
 14.0176  25748.4  159.845
 14.2156  25356.4  157.581
 14.4136  24163.1  155.247
 14.6116  23623.3  152.683
 14.8096  22967.4  150.542
 15.0076  21859.8  150.783
 15.2056  21645.7  145.721
 15.4036  20387.8  142.299
 15.6016  20045.6  140.144
 15.7996  19584.5  138.815
 15.9976  18701.2  138.705
 16.1956  17862.1  133.361
 16.3936  17734.1  132.032
 16.5916  17356  131.27
 16.7896  17374.2  131.391
 16.9876  17165.6  132.095
 17.1856  17052.8  129.837
 17.3836  16784.2  128.821
 17.5816  16006.3  126.324
 17.7796  15843.3  125.605
 17.9776  15522.9  125.149
 18.1756  15672.2  124.35
 18.3736  15431  123.984
 18.5716  15166.1  122.662
 18.7696  15194.8  122.34
 18.9676  14969.7  121.228
 19.1656  14894.2  121.687
 19.3636  14861.1  121.677
 19.5616  14617  120.729
 19.7596  14871.1  121.158
 19.9576  15002  121.753
 20.1556  15780.3  125.434
 20.3536  15187.6  122.401
 20.5516  14743.3  121.065
 20.7496  14239.1  118.818
 20.9476  14022  117.745
 21.1456  14167.7  118.701
 21.3436  13984.1  117.868
 21.5416  13798.3  117.088
 21.7396  13793.5  116.909
 21.9376  13790.5  116.652
 22.1356  13700  116.546
 22.3336  13692.1  116.658
 22.5316  13698.3  116.799
 22.7296  13582.1  115.64
 22.9276  13448.4  115.767
 23.1256  13629.2  116.002
 23.3236  13430.3  115.724
 23.5216  13294.8  114.781
 23.7196  13107.5  114.136
 23.9176  12988.7  113.141
 24.1156  12983.5  113.613
 24.3136  12627.3  112.839
 24.5116  12697.9  112.67
 24.7096  12359.8  110.975
 24.9076  12002.5  109.382
 25.1056  12047.7  109.785
 25.3036  11845.5  108.726
 25.5016  11818.1  108.552
 25.6996  11782.6  107.959
 25.8976  11628.4  107.686
 26.0956  11729.1  108.189
 26.2936  11659.3  107.494
 26.4916  11719.3  107.656
 26.6896  11209.9  105.582
 26.8876  11249.3  105.621
 27.0856  11311.3  105.925
 27.2836  11129.1  104.997
 27.4816  11041.4  104.511
 27.6796  10753.6  103.524
 27.8776  10756.3  103.391
 28.0756  10778.7  103.796
 28.2736  10685.5  102.92
 28.4716  10602.7  102.568
 28.6696  10592.1  102.364
 28.8676  10347.2  101.521
 29.0656  10295.4  101.249
 29.2636  10344.5  101.189
 29.4616  10398  101.733
 29.6596  10289.7  100.752
 29.8576  10092.7  100.484
 30.0556  10202.4  100.908
 30.2536  10327  101.301
 30.4516  10016.4  99.4184
 30.6496  10033.7  99.2241
 30.8476  9976.32  99.3925
 31.0456  9909.33  99.0165
 31.2436  9851.68  97.9771
 31.4416  9882.85  98.3004
 31.6396  9828.78  98.0874
 31.8376  9972.77  98.3345
 32.0356  9782.09  97.9719
 32.2336  9643.74  96.6459
 32.4316  9510.09  96.3911
 32.6296  9472.08  95.9672
 32.8276  9424.35  95.5662
 33.0256  9417.68  95.6002
 33.2236  9237.85  94.8322
 33.4216  9368.5  95.2119
 33.6196  9403.58  95.7005
 33.8176  9356.61  95.605
 34.0156  9219.52  94.5067
 34.2136  9238.65  94.6334
 34.4116  9108.27  94.131
 34.6096  9037.55  93.6249
 34.8076  8936.08  93.5178
 35.0056  8967.39  93.3654
 35.2036  8903.11  93.2356
 35.4016  8855.17  92.9207
 35.5996  8835.77  92.8559
 35.7976  8682.4  92.3304
 35.9956  8775.43  92.4599
 36.1936  8793.83  92.4241
 36.3916  8559.84  91.3617
 36.5896  8553.82  92.7969
 36.7876  8407.49  90.9068
 36.9856  8210.63  89.8694
 37.1836  8346.17  89.7128
 37.3816  8280.8  89.7329
 37.5796  8251.61  91.3124
 37.7776  8245.81  89.6346
 37.9756  8302.81  89.8247
 38.1736  8280.29  89.9043
 38.3716  8014.06  88.7021
 38.5696  8062.14  89.3605
 38.7676  8069.14  88.8947
 38.9656  8174.49  89.0924
 39.1636  8035.01  88.5733
 39.3616  8147.75  89.1574
 39.5596  7894.26  88.603
 39.7576  7883.8  87.933
 39.9556  7964  88.0147
 40.1536  8130.81  89.1299
 40.3516  8072.2  88.8196
 40.5496  8048.96  88.7465
 40.7476  8042.32  88.9232
 40.9456  8097  88.9756
 41.1436  8072.63  88.5596
 41.3416  7948.15  88.2098
 41.5396  7861.16  87.5336
 41.7376  7777.78  87.3289
 41.9356  7807.16  87.3502
 42.1336  7900.61  88.0205
 42.3316  7730.39  87.266
 42.5296  7870.18  87.5703
 42.7276  7853.22  87.7162
 42.9256  7857.39  87.6089
 43.1236  7737.66  87.0468
 43.3216  7763.25  87.0463
 43.5196  7681.21  86.4974
 43.7176  7671.29  86.8797
 43.9156  7699.79  86.9563
 44.1136  7614.06  86.0235
 44.3116  7675.37  86.3844
 44.5096  7683.16  86.7385
 44.7076  7674.82  86.5982
 44.9056  7612.46  86.1263
 45.1036  7471.27  84.9478
 45.3016  7505.42  85.6472
 45.4996  7428.83  85.1433
 45.6976  7393.75  85.1289
 45.8956  7427.48  85.1275
 46.0936  7363.98  84.5228
 46.2916  7447.81  85.227
 46.4896  7538.04  85.786
 46.6876  7218.77  84.6529
 46.8856  7373.38  84.8221
 47.0836  7260.52  84.4141
 47.2816  7267.51  84.3143
 47.4796  7387.42  85.1356
 47.6776  7240.17  85.2255
 47.8756  7331.61  84.9
 48.0736  7262.53  84.9803
 48.2716  7325.05  85.1667
 48.4696  7382.45  85.0918
 48.6676  7250.75  84.9151
 48.8656  7415.37  85.6046
 49.0636  7255.1  84.6123
 49.2616  7208.39  84.3667
 49.4596  7350.06  84.7613
 49.6576  7192.37  84.0771
 49.8556  7230.99  84.3098
 50.0536  7198.73  84.5755
 50.2516  7235.49  84.9068
 50.4496  7195.28  84.2743
 50.6476  7295.91  84.6034
 50.8456  7212.37  84.2181
 51.0436  7095.64  83.9756
 51.2416  7214.05  84.3444
 51.4396  7082.34  83.9758
 51.6376  7075.38  83.7528
 51.8356  7184.05  83.9129
 52.0336  6871.37  82.6771
 52.2316  6989.17  83.738
 52.4296  7055.78  83.8124
 52.6276  6959.66  83.353
 52.8256  7059.84  83.4986
 53.0236  6869.64  83.0225
 53.2216  6840.69  83.0768
 53.4196  6970.02  83.5895
 53.6176  6884.21  83.5518
 53.8156  6803.31  82.724
 54.0136  6866.31  83.3042
 54.2116  6878.48  83.0254
 54.4096  6817.3  82.7093
 54.6076  6762.96  82.7398
 54.8056  6779.69  82.6197
 55.0036  6789.66  82.9551
 55.2016  6821.65  82.7365
 55.3996  6778.22  82.5186
 55.5976  6666.93  82.0323
 55.7956  6857.59  82.9971
 55.9936  6752.05  82.5029
 56.1916  6749.74  82.5007
 56.3896  6821.52  82.9382
 56.5876  6686.91  82.6791
 56.7856  6662.33  82.0018
 56.9836  6721.31  82.1239
 57.1816  6699.04  82.4011
 57.3796  6724.8  82.3303
 57.5776  6729.66  82.3025
 57.7756  6591.6  82.1049
 57.9736  6587.99  81.7478
 58.1716  6643.18  82.3374
 58.3696  6803.53  83.0624
 58.5676  6679.88  81.7574
 58.7656  6758.01  82.9481
 58.9636  6760.95  82.9959
 59.1616  6808.3  83.4273
 59.3596  6709.9  82.0514
 59.5576  6699.83  82.0502
 59.7556  6786.06  83.02
 59.9536  6868.8  83.4167
 60.1516  6721.13  83.4107
 60.1996  0.0000000E+00  0.0000000E+00

File: 17_D_fresh_f00002.xye
# /beamlines/bl04/projects/cycle2025-II/20250340211-lsimonelli/DATA/IS17_D_fresh/17_D_fresh_f00002.xye : mythproc.py merge -s 0.006 -l 0.5 -f /beamlines/bl04/inhouse/ff/FlatField/ff_20Nov2024rod8mm60s_17keV.raw -b True -c true -o xye /beamlines/bl04/projects/cycle2025-II/20250340211-lsimonelli/DATA/IS17_D_fresh/17_D_fresh_00002.dat
# IsMon = [6772454, 6771461, 6774924]  IsPos = [-1.5000, -2.4885, -3.4986]
# Wave = 0.4962  CalPath /beamlines/bl04/projects/cycle2025-II/20250340211-lsimonelli/DATA/Align/Si_Pos1_25keV_f00001.cal
# Date = 2025-09-23_22:04:53 Dt = 4.8000  Bin = 0.0060  <imon> = 6772946 +/- 1456 (Min/Max) 6771461 / 6774924
# icurr 251.3723  mocoIn 1.7157E-05  mocoOut 0.8047  i15 7.08863e+06  imon 6.77295e+06  i7 8.6667  iEMpd_timer 4.8000  iEMpd_1 3.5657E-08  iEMpd_2 7.7942E-08  iEMpd_3 1.7574E-08  iEMpd_4 4.8207E-08  iEMhp_timer 4.8000  iEMhp_1 4.9123E-06  iEMhp_2 -2.4573E-08  iEMhp_3 -2.3443E-08  iEMhp_4 -2.0217E-08
#      9776
 1.7416  66430.7  257.825
 1.9396  42856  207.352
 2.1376  29868.5  173.1
 2.3356  26960.5  164.113
 2.5336  28443.9  169.16
 2.7316  24284.1  156.407
 2.9296  22815.6  151.769
 3.1276  22341.9  149.749
 3.3256  22307.8  149.319
 3.5236  24167.2  155.373
 3.7216  22225.4  150.057
 3.9196  22516.5  150.275
 4.1176  21798.2  147.627
 4.3156  23136  152.244
 4.5136  26603.3  162.246
 4.7116  27138.4  165.003
 4.9096  26419.7  162.236
 5.1076  25865.5  161.101
 5.3056  26488.8  162.658
 5.5036  25999.7  161.154
 5.7016  26395.1  162.33
 5.8996  27078.5  163.636
 6.0976  27905.4  167.554
 6.2956  28761.7  169.438
 6.4936  29420.9  170.564
 6.6916  29932.2  173.044
 6.8896  31309.2  176.843
 7.0876  32093.6  179.685
 7.2856  31823.3  178.063
 7.4836  32835.9  180.198
 7.6816  33593.3  182.809
 7.8796  35385.4  187.614
 8.0776  40154.7  200.902
 8.2756  40468.9  200.216
 8.4736  40045.8  198.985
 8.6716  39675  198.719
 8.8696  40430  201.054
 9.0676  39551.8  198.218
 9.2656  37129.6  192.751
 9.4636  36844.8  190.364
 9.6616  35681.6  188.137
 9.8596  34846.7  185.396
 10.0576  33158  181.54
 10.2556  31506.3  177.388
 10.4536  37221.4  192.38
 10.6516  38201.5  195.12
 10.8496  29156  169.841
 11.0476  29261.7  170.133
 11.2456  32676.2  180.43
 11.4436  27897.7  165.862
 11.6416  27498.9  165.047
 11.8396  26259.9  161.488
 12.0376  25781.7  159.624
 12.2356  27611.7  165.673
 12.4336  26633.8  162.203
 12.6316  24869  156.997
 12.8296  25806.8  159.573
 13.0276  26429.9  161.67
 13.2256  25768  160.006
 13.4236  26055.3  160.658
 13.6216  25690.7  159.542
 13.8196  26757  162.581
 14.0176  25718.1  159.684
 14.2156  24950.2  156.315
 14.4136  23601.6  153.422
 14.6116  23339.4  151.761
 14.8096  22558.7  149.184
 15.0076  21504.2  149.556
 15.2056  21100.5  143.876
 15.4036  20255.1  141.829
 15.6016  19798.7  139.268
 15.7996  19313.9  137.837
 15.9976  18269.8  137.08
 16.1956  17589.6  132.328
 16.3936  17356.8  130.605
 16.5916  17235.6  130.796
 16.7896  17273  131.001
 16.9876  17029.9  131.58
 17.1856  17167.6  130.428
 17.3836  15981.3  125.724
 17.5816  15979.4  126.222
 17.7796  16044.5  126.41
 17.9776  16175.1  127.741
 18.1756  17506.6  131.474
 18.3736  17370.3  131.548
 18.5716  15279.9  123.12
 18.7696  15472.5  123.442
 18.9676  15017.8  121.421
 19.1656  14884.1  121.448
 19.3636  14931.5  121.853
 19.5616  14810.8  121.523
 19.7596  14764.9  120.726
 19.9576  15326.6  123.059
 20.1556  14701.7  121.069
 20.3536  14453.7  119.393
 20.5516  14133.1  118.531
 20.7496  13887.9  117.341
 20.9476  14404.8  119.324
 21.1456  14607.3  120.525
 21.3436  13813.9  117.151
 21.5416  13841.7  117.26
 21.7396  13437.3  115.383
 21.9376  13718.5  116.344
 22.1356  13991.8  117.653
 22.3336  13926.9  117.649
 22.5316  13718.4  116.878
 22.7296  13551.1  115.497
 22.9276  13428.4  115.676
 23.1256  13938.6  117.299
 23.3236  13295.4  115.113
 23.5216  13125.2  114.036
 23.7196  12968.8  113.52
 23.9176  12849.2  112.526
 24.1156  12877.6  113.137
 24.3136  12532.5  112.429
 24.5116  12609.8  112.295
 24.7096  12602.9  112.076
 24.9076  12131.2  109.969
 25.1056  12125.2  110.144
 25.3036  11838.2  108.614
 25.5016  11866  108.766
 25.6996  11877.5  108.392
 25.8976  11906.5  108.964
 26.0956  11908.9  109.009
 26.2936  11830.7  108.282
 26.4916  11690.3  107.519
 26.6896  11321.3  106.106
 26.8876  11145.4  105.131
 27.0856  11473  106.681
 27.2836  11090.8  104.98
 27.4816  11098.9  104.775
 27.6796  10910.4  104.279
 27.8776  11199.3  105.497
 28.0756  10903.2  104.393
 28.2736  10959.4  104.227
 28.4716  10512  102.131
 28.6696  10698.9  102.875
 28.8676  10459.4  102.071
 29.0656  10372.9  101.627
 29.2636  10320.1  101.065
 29.4616  10257  101.035
 29.6596  10432.4  101.442
 29.8576  10086.6  100.452
 30.0556  10397.9  101.863
 30.2536  10248.1  100.911
 30.4516  10102.7  99.8362
 30.6496  9929.73  98.6981
 30.8476  9904.86  99.0282
 31.0456  9984.18  99.3861
 31.2436  9791.69  97.6738
 31.4416  9846.2  98.1289
 31.6396  10229.4  100.076
 31.8376  9831.03  97.6496
 32.0356  9798.2  98.0661
 32.2336  9502.22  95.9431
 32.4316  9670.01  97.2049
 32.6296  9406.56  95.6337
 32.8276  9477.52  95.8281
 33.0256  9381.84  95.4185
 33.2236  9362.55  95.4682
 33.4216  9316.36  94.9135
 33.6196  9301.18  95.1449
 33.8176  9255.18  95.0832
 34.0156  9204.36  94.431
 34.2136  9035.75  93.5901
 34.4116  9018.91  93.6651
 34.6096  9128.22  94.1041
 34.8076  8881.33  93.2393
 35.0056  9008.45  93.5835
 35.2036  8892.18  93.1868
 35.4016  8852.81  92.9119
 35.5996  8743.57  92.3723
 35.7976  8643.27  92.123
 35.9956  8886.3  93.0442
 36.1936  8741.71  92.144
 36.3916  8592.93  91.5419
 36.5896  8762.83  93.924
 36.7876  8522.49  91.532
 36.9856  8303.78  90.3788
 37.1836  8314.19  89.5317
 37.3816  8335.36  90.0199
 37.5796  8227.45  91.1787
 37.7776  8187.03  89.3131
 37.9756  8391.05  90.3003
 38.1736  8419.11  90.6459
 38.3716  8177.43  89.6004
 38.5696  8116.83  89.6581
 38.7676  8004.72  88.5506
 38.9656  8098.3  88.6928
 39.1636  8139.81  89.1696
 39.3616  8162.52  89.2523
 39.5596  7894.12  88.6103
 39.7576  7835.46  87.6604
 39.9556  8031.72  88.383
 40.1536  8059.92  88.7391
 40.3516  8076.2  88.9257
 40.5496  7949.53  88.1981
 40.7476  7968.93  88.5229
 40.9456  8031.58  88.6166
 41.1436  7980.65  88.0567
 41.3416  7957.34  88.2609
 41.5396  7855.03  87.5036
 41.7376  8005.04  88.5937
 41.9356  7828.43  87.4739
 42.1336  7844.09  87.71
 42.3316  7886.45  88.1459
 42.5296  7847.16  87.4397
 42.7276  7764.46  87.2196
 42.9256  7828.56  87.4448
 43.1236  7733.91  87.0261
 43.3216  7803  87.2659
 43.5196  7654.7  86.3976
 43.7176  7646.57  86.7403
 43.9156  7655.63  86.7039
 44.1136  7699.83  86.503
 44.3116  7710.91  86.5754
 44.5096  7645.34  86.5214
 44.7076  7799.48  87.3172
 44.9056  7432.74  85.1
 45.1036  7490.83  85.06
 45.3016  7410.63  85.1009
 45.4996  7405.36  85.0063
 45.6976  7408.28  85.1871
 45.8956  7417.83  85.0743
 46.0936  7401.45  84.7495
 46.2916  7368.05  84.7852
 46.4896  7453.56  85.3142
 46.6876  7343.1  85.3903
 46.8856  7362.26  84.8712
 47.0836  7219.52  84.1712
 47.2816  7295.42  84.4794
 47.4796  7430.45  85.3823
 47.6776  7217.05  85.0874
 47.8756  7308.09  84.779
 48.0736  7226.37  84.7408
 48.2716  7270.31  84.8441
 48.4696  7312.41  84.6862
 48.6676  7239.66  84.8447
 48.8656  7374.92  85.3745
 49.0636  7314.41  84.9649
 49.2616  7283.22  84.7932
 49.4596  7244.04  84.1466
 49.6576  7250.73  84.4174
 49.8556  7187.76  84.0269
 50.0536  7144.86  84.26
 50.2516  7152.66  84.4156
 50.4496  7238.21  84.58
 50.6476  7192.57  83.99
 50.8456  7159.02  83.9064
 51.0436  7153.18  84.3146
 51.2416  7235.16  84.4566
 51.4396  7047.45  83.7644
 51.6376  7055.07  83.6313
 51.8356  7099.47  83.5181
 52.0336  6773.28  82.0736
 52.2316  6814.6  82.6739
 52.4296  6915.43  82.9664
 52.6276  6865.37  82.7762
 52.8256  7015.67  83.2241
 53.0236  6840.12  82.849
 53.2216  6907.63  83.2475
 53.4196  6759.24  82.3272
 53.6176  6832.35  83.2585
 53.8156  6739.25  82.3523
 54.0136  6766.45  82.691
 54.2116  6798.83  82.539
 54.4096  6835.39  82.8231
 54.6076  6763.19  82.7364
 54.8056  6691.78  82.0783
 55.0036  6676.27  82.2592
 55.2016  6856.2  82.9439
 55.3996  6789.12  82.5803
 55.5976  6714.42  82.3136
 55.7956  6663.61  81.8173
 55.9936  6609.87  81.6274
 56.1916  6767.61  82.596
 56.3896  6750.51  82.4974
 56.5876  6584.75  82.0401
 56.7856  6689.2  82.1508
 56.9836  6580.84  81.2646
 57.1816  6593.92  81.7361
 57.3796  6724.39  82.302
 57.5776  6748.17  82.4154
 57.7756  6668.41  82.5833
 57.9736  6747.19  82.7315
 58.1716  6670.52  82.5006
 58.3696  6710.99  82.5004
 58.5676  6754.82  82.2137
 58.7656  6746.74  82.8733
 58.9636  6659.59  82.3653
 59.1616  6698.89  82.753
 59.3596  6774.3  82.4228
 59.5576  6694.28  81.9943
 59.7556  6675.14  82.3167
 59.9536  6766.44  82.7708
 60.1516  6695.34  83.2283
 60.1996  0.0000000E+00  0.0000000E+00