Folder: echemistpy/docs/examples/opeando_xrd/IS17_D/Data/IS17_D

Note: docs/README.md
# 文档概览

`docs/Characterization/` 目录保留了 EQCM、XRD、XPS 等实验表征资料，可在撰写技术文档或学术报告时引用。
后续若集成 Sphinx/MkDocs，可在本目录下新增 `conf.py` 或 `mkdocs.yml`。

File: 17_Da_f00001.xye
# /beamlines/bl04/projects/cycle2025-II/20250340211-lsimonelli/DATA/IS17_D/17_Da_f00001.xye : mythproc.py merge -s 0.006 -l 0.5 -f /beamlines/bl04/inhouse/ff/FlatField/ff_20Nov2024rod8mm60s_17keV.raw -b True -c true -o xye /beamlines/bl04/projects/cycle2025-II/20250340211-lsimonelli/DATA/IS17_D/17_Da_00001.dat
# IsMon = [6749354, 6746660, 6746966]  IsPos = [-1.5000, -2.4886, -3.4988]
# Wave = 0.4962  CalPath /beamlines/bl04/projects/cycle2025-II/20250340211-lsimonelli/DATA/Align/Si_Pos1_25keV_f00001.cal
# Date = 2025-09-23_17:48:41 Dt = 4.8000  Bin = 0.0060  <imon> = 6747660 +/- 1204 (Min/Max) 6746660 / 6749354
# icurr 250.5445  mocoIn 1.7091E-05  mocoOut 0.8020  i15 7.03743e+06  imon 6.74766e+06  i7 4.3333  iEMpd_timer 4.8000  iEMpd_1 3.5593E-08  iEMpd_2 7.8325E-08  iEMpd_3 1.7843E-08  iEMpd_4 4.9026E-08  iEMhp_timer 4.8000  iEMhp_1 4.8960E-06  iEMhp_2 -2.4094E-08  iEMhp_3 -2.3885E-08  iEMhp_4 -2.1364E-08
#      9776
 1.7416  70447.9  265.463
 1.9396  46197  215.248
 2.1376  32653  180.96
 2.3356  29105.6  170.489
 2.5336  27040.3  164.907
 2.7316  25490.5  160.238
 2.9296  24232.3  156.398
 3.1276  23750.3  154.378
 3.3256  23453.1  153.091
 3.5236  25463.6  159.463
 3.7216  23196  153.297
 3.9196  22543.2  150.362
 4.1176  22510.1  150.013
 4.3156  23843.1  154.565
 4.5136  25978.3  160.33
 4.7116  27219.8  165.25
 4.9096  26420.2  162.24
 5.1076  26166.5  162.029
 5.3056  26315.3  162.367
 5.5036  25950.5  161.081
 5.7016  26231.7  161.832
 5.8996  26936.6  163.216
 6.0976  27540.6  166.454
 6.2956  28263.5  167.974
 6.4936  29023.1  169.411
 6.6916  29451.7  171.648
 6.8896  30216.1  173.722
 7.0876  31359.7  177.615
 7.2856  31086.4  175.99
 7.4836  31463.7  176.397
 7.6816  32297.8  179.252
 7.8796  33704.6  183.116
 8.0776  35017  187.624
 8.2756  36853  191.089
 8.4736  37437.2  192.403
 8.6716  36294.2  190.077
 8.8696  36461.1  190.962
 9.0676  35203.9  187.012
 9.2656  34673.4  186.277
 9.4636  33996.8  182.89
 9.6616  33301.1  181.775
 9.8596  31926.2  177.452
 10.0576  30374.6  173.359
 10.2556  28708.4  169.323
 10.4536  28170.2  167.35
 10.6516  27117.7  164.382
 10.8496  26630.8  162.326
 11.0476  25676.6  159.374
 11.2456  25030.2  158.377
 11.4436  25050.8  157.172
 11.6416  26280  161.349
 11.8396  24061  154.577
 12.0376  24000.3  154.02
 12.2356  23392.3  152.498
 12.4336  23252.8  151.559
 12.6316  23085.1  151.268
 12.8296  23564.8  152.486
 13.0276  23938.3  153.87
 13.2256  24084.1  154.699
 13.4236  24132  154.612
 13.6216  23771.9  153.473
 13.8196  24103.2  154.073
 14.0176  23394.6  152.367
 14.2156  22882.2  149.691
 14.4136  21943.9  147.949
 14.6116  21498.3  145.655
 14.8096  20968.7  143.839
 15.0076  19591.9  142.773
 15.2056  19309.1  137.647
 15.4036  18315.7  134.877
 15.6016  18066.4  133.051
 15.7996  17711.7  132.009
 15.9976  16886.5  131.793
 16.1956  16479.6  128.086
 16.3936  16235.2  126.317
 16.5916  15806.3  125.26
 16.7896  15984.2  126.022
 16.9876  15742.8  126.507
 17.1856  15472.4  123.686
 17.3836  15107.3  122.241
 17.5816  14654.7  120.864
 17.7796  14388.6  119.709
 17.9776  14121.4  119.363
 18.1756  14021.3  117.619
 18.3736  13915.6  117.743
 18.5716  13716.4  116.643
 18.7696  13699.6  116.163
 18.9676  13533.4  115.262
 19.1656  13485.2  115.792
 19.3636  13390.6  115.499
 19.5616  13276.9  115.07
 19.7596  13431.1  115.148
 19.9576  13623.7  116.032
 20.1556  14324.4  119.509
 20.3536  13786.5  116.61
 20.5516  13303.8  115.004
 20.7496  12678.5  112.118
 20.9476  12651.4  111.841
 21.1456  12820.7  112.916
 21.3436  12548.7  111.663
 21.5416  12357.4  110.795
 21.7396  12345  110.601
 21.9376  12427.9  110.738
 22.1356  12389.9  110.837
 22.3336  12543.4  111.658
 22.5316  12221.1  110.315
 22.7296  12277.5  109.937
 22.9276  12293.8  110.686
 23.1256  12460.4  110.917
 23.3236  12364.4  111.028
 23.5216  12432.9  110.985
 23.7196  12145.3  109.851
 23.9176  12186.7  109.589
 24.1156  11946  108.971
 24.3136  11566.3  108.006
 24.5116  11604.4  107.716
 24.7096  11285.5  106.046
 24.9076  11055.6  104.981
 25.1056  10879.2  104.331
 25.3036  10735.6  103.505
 25.5016  10618.4  102.895
 25.6996  10786.1  103.292
 25.8976  10620.7  102.924
 26.0956  10681.8  103.243
 26.2936  10731.6  103.132
 26.4916  10700.5  102.86
 26.6896  10487.3  102.129
 26.8876  10336.4  101.242
 27.0856  10275.9  100.959
 27.2836  10141.2  100.231
 27.4816  9993.66  99.4365
 27.6796  9974.44  99.7084
 27.8776  9853.12  98.954
 28.0756  9892.71  99.4436
 28.2736  9730.52  98.2096
 28.4716  9613.03  97.6617
 28.6696  9637.43  97.6405
 28.8676  9548.73  97.528
 29.0656  9446.4  96.9862
 29.2636  9406.85  96.4937
 29.4616  9337.87  96.4121
 29.6596  9435.34  96.4849
 29.8576  9142.93  95.6489
 30.0556  9284.51  96.2668
 30.2536  9502.65  97.1821
 30.4516  9189.41  95.2192
 30.6496  9187.41  94.9401
 30.8476  9154.1  95.1991
 31.0456  9086.09  94.8035
 31.2436  9019.88  93.7412
 31.4416  9122.41  94.454
 31.6396  9075.2  94.2535
 31.8376  8978.25  93.3037
 32.0356  8791.05  92.8741
 32.2336  8763.46  92.1295
 32.4316  8805.79  92.7578
 32.6296  8746.81  92.2224
 32.8276  8759.47  92.1288
 33.0256  8551.9  91.1119
 33.2236  8667.4  91.8622
 33.4216  8711.01  91.8251
 33.6196  8698.41  92.0499
 33.8176  8709.86  92.2296
 34.0156  8649.33  91.5301
 34.2136  8433.99  90.4238
 34.4116  8419.42  90.4975
 34.6096  8409.18  90.3248
 34.8076  8335.05  90.3197
 35.0056  8357.87  90.142
 35.2036  8423.75  90.7014
 35.4016  8334.92  90.1545
 35.5996  8220.67  89.5608
 35.7976  8162.65  89.5221
 35.9956  8202.7  89.3857
 36.1936  8230.43  89.4108
 36.3916  8091.36  88.825
 36.5896  8118.18  90.3921
 36.7876  8227.96  89.9527
 36.9856  8108.58  89.3277
 37.1836  7934.05  87.478
 37.3816  8069.5  88.5841
 37.5796  7813.2  88.8454
 37.7776  7841.24  87.3983
 37.9756  7761.62  86.8337
 38.1736  7913.07  87.875
 38.3716  7815.61  87.6085
 38.5696  7779.47  87.778
 38.7676  7584.56  86.1841
 38.9656  7762.58  86.8289
 39.1636  7718.04  86.8084
 39.3616  7685.39  86.5943
 39.5596  7610.22  87.005
 39.7576  7627.3  86.485
 39.9556  7811.08  87.1625
 40.1536  7797.37  87.2845
 40.3516  7811.53  87.3824
 40.5496  7840.15  87.5867
 40.7476  7811.79  87.6363
 40.9456  7823.03  87.4531
 41.1436  7827.32  87.2
 41.3416  7744.37  87.0707
 41.5396  7748.45  86.9076
 41.7376  7731.19  87.0694
 41.9356  7629.11  86.3554
 42.1336  7660.46  86.6745
 42.3316  7695.29  87.074
 42.5296  7672.93  86.4654
 42.7276  7720.14  86.9674
 42.9256  7684.06  86.6352
 43.1236  7580.35  86.1582
 43.3216  7583.08  86.0276
 43.5196  7526.54  85.6225
 43.7176  7482.55  85.8057
 43.9156  7502.96  85.8391
 44.1136  7483.09  85.2838
 44.3116  7429.62  84.9929
 44.5096  7315.99  84.641
 44.7076  7482.9  85.5159
 44.9056  7351.54  84.6399
 45.1036  7297.11  83.9581
 45.3016  7190  83.8299
 45.4996  7099.97  83.2435
 45.6976  7140.93  83.6592
 45.8956  7195.99  83.7981
 46.0936  7233.17  83.7766
 46.2916  7244.58  84.0631
 46.4896  7163.02  83.6222
 46.6876  7015.39  83.446
 46.8856  7065.9  83.0296
 47.0836  6969.24  82.6993
 47.2816  6976.26  82.6227
 47.4796  7008.32  82.9111
 47.6776  6890.25  83.1389
 47.8756  6957.29  82.7325
 48.0736  6900.33  82.8365
 48.2716  6716.13  81.5522
 48.4696  6855.03  81.9885
 48.6676  6753.2  81.951
 48.8656  6801.54  81.9792
 49.0636  6889.28  82.4448
 49.2616  6677.22  81.202
 49.4596  6768.34  81.3249
 49.6576  6646.39  80.8183
 49.8556  6717.84  81.2647
 50.0536  6714.42  81.6879
 50.2516  6618.89  81.2035
 50.4496  6659.26  81.0859
 50.6476  6615.57  80.5612
 50.8456  6637.51  80.7776
 51.0436  6416.03  79.8581
 51.2416  6505.98  80.0936
 51.4396  6350.06  79.5144
 51.6376  6401.13  79.6586
 51.8356  6453.33  79.5471
 52.0336  6332.27  79.3641
 52.2316  6312.24  79.5805
 52.4296  6310.98  79.2682
 52.6276  6280.72  79.1996
 52.8256  6358.97  79.2504
 53.0236  6199.95  78.8803
 53.2216  6124.32  78.615
 53.4196  6171.04  78.6534
 53.6176  6169.57  79.1137
 53.8156  6260.75  79.3733
 54.0136  6167.73  78.9567
 54.2116  6139.91  78.4387
 54.4096  6177.76  78.7298
 54.6076  6139.7  78.8364
 54.8056  6016.96  77.837
 55.0036  6090.84  78.5694
 55.2016  6123.96  78.3937
 55.3996  6064.45  78.0557
 55.5976  6051  78.1468
 55.7956  6038.02  77.8844
 55.9936  5993.95  77.7322
 56.1916  6127.89  78.6096
 56.3896  6097.37  78.415
 56.5876  5966.12  78.1022
 56.7856  5934.37  77.3862
 56.9836  5934.99  77.1747
 57.1816  5973.15  77.81
 57.3796  5972.19  77.5968
 57.5776  6145.4  78.6369
 57.7756  5928.43  77.8701
 57.9736  5960.02  77.7519
 58.1716  6032.45  78.4639
 58.3696  5927.3  77.5357
 58.5676  5974.93  77.3336
 58.7656  5973  77.9809
 58.9636  6219.65  79.6111
 59.1616  5928.96  77.8458
 59.3596  6035.68  77.8154
 59.5576  6044.85  77.9311
 59.7556  5901.65  77.416
 59.9536  6258.59  79.6197
 60.1516  6021.52  78.9448
 60.1996  0.0000000E+00  0.0000000E+00

File: 17_Da_f00004.xye
# /beamlines/bl04/projects/cycle2025-II/20250340211-lsimonelli/DATA/IS17_D/17_Da_f00004.xye : mythproc.py merge -s 0.006 -l 0.5 -f /beamlines/bl04/inhouse/ff/FlatField/ff_20Nov2024rod8mm60s_17keV.raw -b True -c true -o xye /beamlines/bl04/projects/cycle2025-II/20250340211-lsimonelli/DATA/IS17_D/17_Da_00004.dat
# IsMon = [6775719, 6777845, 6778240]  IsPos = [-1.5000, -2.4885, -3.4988]
# Wave = 0.4962  CalPath /beamlines/bl04/projects/cycle2025-II/20250340211-lsimonelli/DATA/Align/Si_Pos1_25keV_f00001.cal
# Date = 2025-09-23_18:40:50 Dt = 4.8000  Bin = 0.0060  <imon> = 6777268 +/- 1107 (Min/Max) 6775719 / 6778240
# icurr 252.3747  mocoIn 1.7212E-05  mocoOut 0.8078  i15 7.08218e+06  imon 6.77727e+06  i7 5.6667  iEMpd_timer 4.8000  iEMpd_1 3.5059E-08  iEMpd_2 7.8672E-08  iEMpd_3 1.6381E-08  iEMpd_4 4.7094E-08  iEMhp_timer 4.8000  iEMhp_1 4.9307E-06  iEMhp_2 -2.3997E-08  iEMhp_3 -2.3973E-08  iEMhp_4 -2.1361E-08
#      9776
 1.7416  70794.6  266.179
 1.9396  46143.5  215.177
 2.1376  32224  179.811
 2.3356  28803.1  169.641
 2.5336  26477.6  163.221
 2.7316  24821.7  158.133
 2.9296  23911.2  155.369
 3.1276  23307.2  152.948
 3.3256  23130.6  152.037
 3.5236  25382.5  159.222
 3.7216  22924.1  152.395
 3.9196  22328.5  149.642
 4.1176  22384.2  149.607
 4.3156  23671.7  154.008
 4.5136  26122.1  160.77
 4.7116  27149.2  165.036
 4.9096  26398.1  162.177
 5.1076  25997.7  161.515
 5.3056  26375.8  162.413
 5.5036  26083.2  161.492
 5.7016  26336.5  162.157
 5.8996  26851.1  162.954
 6.0976  27684.7  166.891
 6.2956  28237.6  167.89
 6.4936  29129.7  169.723
 6.6916  29287.4  171.17
 6.8896  30343.8  174.088
 7.0876  31358.2  177.619
 7.2856  31067.4  175.939
 7.4836  31467.6  176.406
 7.6816  32274.3  179.187
 7.8796  33599  182.812
 8.0776  35350.7  188.493
 8.2756  37055  191.587
 8.4736  37685.1  193.025
 8.6716  36525.7  190.658
 8.8696  36707.4  191.599
 9.0676  35833.7  188.692
 9.2656  34575.7  186.023
 9.4636  34660.9  184.675
 9.6616  33395.3  182.026
 9.8596  32220.8  178.278
 10.0576  30311.5  173.569
 10.2556  29468.4  171.57
 10.4536  28398  168.035
 10.6516  27396.3  165.239
 10.8496  26821.1  162.908
 11.0476  26141.4  160.81
 11.2456  25533.1  159.498
 11.4436  25712.6  159.243
 11.6416  26016.4  160.538
 11.8396  24148.6  154.87
 12.0376  23982.1  153.954
 12.2356  23548.9  153.001
 12.4336  23522.8  152.441
 12.6316  23234.5  151.766
 12.8296  23646.5  152.748
 13.0276  24248.6  154.86
 13.2256  24101.8  154.755
 13.4236  23935.4  153.988
 13.6216  23925.5  153.979
 13.8196  23905.4  153.68
 14.0176  23487.1  152.614
 14.2156  22961.5  149.952
 14.4136  21822.3  147.54
 14.6116  21383.1  145.267
 14.8096  20934.4  143.718
 15.0076  19759.3  143.389
 15.2056  19295.4  137.581
 15.4036  18508.8  135.562
 15.6016  18153.8  133.354
 15.7996  17629.9  131.692
 15.9976  17015.6  132.29
 16.1956  16558.7  128.401
 16.3936  16297.2  126.568
 16.5916  15892.2  125.607
 16.7896  16074.5  126.384
 16.9876  15933.4  127.275
 17.1856  15506.9  123.953
 17.3836  15040  121.982
 17.5816  14662  120.915
 17.7796  14534.3  120.32
 17.9776  14249.3  119.905
 18.1756  14336.7  119.001
 18.3736  14139.1  118.682
 18.5716  14095.2  118.25
 18.7696  13988.1  117.381
 18.9676  13800.4  116.4
 19.1656  13634  116.24
 19.3636  13625.4  116.401
 19.5616  13498.3  116.024
 19.7596  13692  116.262
 19.9576  13988.3  117.577
 20.1556  14206.6  119.011
 20.3536  13552.5  115.623
 20.5516  13226.6  114.668
 20.7496  12940  113.274
 20.9476  12708.4  112.095
 21.1456  12871.8  113.132
 21.3436  12510.6  111.496
 21.5416  12686.9  112.272
 21.7396  12482.2  111.215
 21.9376  12470.8  110.932
 22.1356  12370.2  110.754
 22.3336  12416.5  111.081
 22.5316  12332.9  110.812
 22.7296  12507  110.956
 22.9276  12244.8  110.456
 23.1256  12621.3  111.616
 23.3236  12511.1  111.689
 23.5216  12426.5  110.972
 23.7196  12168.4  109.971
 23.9176  12144.5  109.407
 24.1156  11997.6  109.21
 24.3136  11496  107.685
 24.5116  11572.2  107.573
 24.7096  11269.2  105.973
 24.9076  11055.3  104.985
 25.1056  11070.8  105.247
 25.3036  10875.5  104.096
 25.5016  10786.9  103.708
 25.6996  10807.6  103.394
 25.8976  10775.7  103.679
 26.0956  10739.1  103.517
 26.2936  10640.4  102.688
 26.4916  10615.3  102.459
 26.6896  10447.5  101.93
 26.8876  10294.3  101.035
 27.0856  10363.2  101.382
 27.2836  10130.7  100.18
 27.4816  10088.1  99.8916
 27.6796  10026.9  99.9692
 27.8776  9921.03  99.2975
 28.0756  9927.78  99.6093
 28.2736  9802.85  98.5781
 28.4716  9717.49  98.19
 28.6696  9823.44  98.5783
 28.8676  9561.68  97.5924
 29.0656  9576.13  97.6501
 29.2636  9497.77  96.9609
 29.4616  9421.54  96.8315
 29.6596  9453.85  96.5679
 29.8576  9357.79  96.754
 30.0556  9383.66  96.7682
 30.2536  9430.48  96.8026
 30.4516  9244.69  95.508
 30.6496  9324.54  95.6515
 30.8476  9372.11  96.3333
 31.0456  9022.01  94.4798
 31.2436  9097.07  94.1508
 31.4416  9019.4  93.9235
 31.6396  8914.86  93.4246
 31.8376  8964.08  93.2414
 32.0356  8931.19  93.6195
 32.2336  8825.22  92.4668
 32.4316  8855.17  93.0151
 32.6296  8848.33  92.7541
 32.8276  8882.89  92.7809
 33.0256  8754.91  92.1832
 33.2236  8699.07  92.0343
 33.4216  8775.47  92.1304
 33.6196  8663.24  91.8275
 33.8176  8658.16  91.9648
 34.0156  8486.73  90.6541
 34.2136  8550.41  91.0512
 34.4116  8466.99  90.7415
 34.6096  8387.06  90.2051
 34.8076  8290.91  90.0888
 35.0056  8414.45  90.4489
 35.2036  8340.9  90.2611
 35.4016  8345.84  90.2064
 35.5996  8251.26  89.7312
 35.7976  8240.22  89.945
 35.9956  8243.71  89.6151
 36.1936  8118.98  88.8055
 36.3916  8145.92  89.1225
 36.5896  7977.73  89.6176
 36.7876  8179.91  89.6802
 36.9856  7920.43  88.2735
 37.1836  8172.76  88.7732
 37.3816  8162.35  89.0801
 37.5796  7939.56  89.5615
 37.7776  7892.51  87.6948
 37.9756  7954.72  87.917
 38.1736  8077.92  88.7938
 38.3716  7791.6  87.479
 38.5696  7884.48  88.3683
 38.7676  7591.2  86.2197
 38.9656  7662.61  86.2753
 39.1636  7737.91  86.9365
 39.3616  7790.91  87.1902
 39.5596  7705.71  87.5472
 39.7576  7639.54  86.5488
 39.9556  7815.43  87.1908
 40.1536  7889.85  87.8019
 40.3516  7858.15  87.6374
 40.5496  7879.93  87.8086
 40.7476  7858.16  87.8936
 40.9456  7881.13  87.7738
 41.1436  7805.38  87.0822
 41.3416  7747.76  87.0889
 41.5396  7766.76  87.0083
 41.7376  7806.98  87.4931
 41.9356  7676.39  86.6215
 42.1336  7741.22  87.1361
 42.3316  7650.11  86.813
 42.5296  7719.36  86.7269
 42.7276  7730.36  87.0267
 42.9256  7691.24  86.6778
 43.1236  7647.79  86.5405
 43.3216  7637.46  86.3387
 43.5196  7521.78  85.6416
 43.7176  7479.89  85.7913
 43.9156  7546.73  86.0803
 44.1136  7444.78  85.055
 44.3116  7535.84  85.5813
 44.5096  7377.57  84.9874
 44.7076  7453.19  85.3533
 44.9056  7500.99  85.498
 45.1036  7362.6  84.3391
 45.3016  7120.36  83.4271
 45.4996  7166.35  83.6363
 45.6976  7097.3  83.4019
 45.8956  7269.5  84.2278
 46.0936  7218.44  83.6975
 46.2916  7079.58  83.1068
 46.4896  7271.98  84.2562
 46.6876  7133.19  84.1456
 46.8856  7070.93  83.056
 47.0836  6979.09  82.7574
 47.2816  7063.04  83.1327
 47.4796  7041.28  83.1104
 47.6776  6896.39  83.1789
 47.8756  6879.95  82.2702
 48.0736  6993.66  83.3985
 48.2716  6767.8  81.8551
 48.4696  6982.92  82.7471
 48.6676  6893.98  82.7992
 48.8656  6928.34  82.7304
 49.0636  6905.67  82.5517
 49.2616  6672.85  81.1757
 49.4596  6757.15  81.2604
 49.6576  6646.74  80.8189
 49.8556  6765.1  81.5512
 50.0536  6624.59  81.1344
 50.2516  6627.9  81.2636
 50.4496  6679.73  81.2638
 50.6476  6729.21  81.251
 50.8456  6683.1  81.0617
 51.0436  6487.48  80.2922
 51.2416  6520.45  80.1711
 51.4396  6442.73  80.0845
 51.6376  6460  80.019
 51.8356  6427.11  79.4528
 52.0336  6325.44  79.3194
 52.2316  6296.39  79.4861
 52.4296  6422.53  79.9716
 52.6276  6283.41  79.2149
 52.8256  6407.17  79.5611
 53.0236  6288.07  79.4437
 53.2216  6266.96  79.3164
 53.4196  6126.03  78.3728
 53.6176  6136.16  78.904
 53.8156  6137.37  78.593
 54.0136  6281.96  79.6758
 54.2116  6186.17  78.7384
 54.4096  6162.1  78.6337
 54.6076  6054.62  78.2889
 54.8056  6049.93  78.0485
 55.0036  6115.16  78.7338
 55.2016  6174.69  78.7165
 55.3996  6124.57  78.4366
 55.5976  6117.22  78.579
 55.7956  6148.37  78.5895
 55.9936  6089.42  78.3514
 56.1916  6091.14  78.3732
 56.3896  6088.38  78.3531
 56.5876  6044.01  78.6097
 56.7856  5994.42  77.7793
 56.9836  5966.66  77.3858
 57.1816  6023.51  78.1284
 57.3796  6003.34  77.7987
 57.5776  6095.13  78.3143
 57.7756  5940.87  77.9442
 57.9736  5893.82  77.3206
 58.1716  6052.12  78.5874
 58.3696  5976.66  77.8471
 58.5676  5992.65  77.4395
 58.7656  6076.43  78.6475
 58.9636  6117.55  78.9451
 59.1616  6018.22  78.4298
 59.3596  6105.96  78.2575
 59.5576  6033.41  77.8477
 59.7556  5980.95  77.9247
 59.9536  6094.16  78.5572
 60.1516  6076.07  79.2918
 60.1996  0.0000000E+00  0.0000000E+00