Folder: echemistpy/docs/examples/opeando_xrd/IS17_D/Data/IS17_D (part 95)

File: 17_Db_f00091.xye
# /beamlines/bl04/projects/cycle2025-II/20250340211-lsimonelli/DATA/IS17_D/17_Db_f00091.xye : mythproc.py merge -s 0.006 -l 0.5 -f /beamlines/bl04/inhouse/ff/FlatField/ff_20Nov2024rod8mm60s_17keV.raw -b True -c true -o xye /beamlines/bl04/projects/cycle2025-II/20250340211-lsimonelli/DATA/IS17_D/17_Db_00091.dat
# IsMon = [6772570, 6772700, 6773762]  IsPos = [-1.4999, -2.4883, -3.4988]
# Wave = 0.4962  CalPath /beamlines/bl04/projects/cycle2025-II/20250340211-lsimonelli/DATA/Align/Si_Pos1_25keV_f00001.cal
# Date = 2025-09-24_19:04:26 Dt = 4.8000  Bin = 0.0060  <imon> = 6773011 +/- 534 (Min/Max) 6772570 / 6773762
# icurr 251.4949  mocoIn 1.7149E-05  mocoOut 0.8049  i15 7.09639e+06  imon 6.77301e+06  i7 7.6667  iEMpd_timer 4.8000  iEMpd_1 3.4876E-08  iEMpd_2 7.9010E-08  iEMpd_3 1.6825E-08  iEMpd_4 4.7888E-08  iEMhp_timer 4.8000  iEMhp_1 4.9124E-06  iEMhp_2 -2.4649E-08  iEMhp_3 -2.5214E-08  iEMhp_4 -2.0419E-08
#      9776
 1.7416  70323.2  265.27
 1.9396  48595.9  220.804
 2.1376  35654.3  189.123
 2.3356  31543.6  177.514
 2.5336  29443.7  172.107
 2.7316  27312.9  165.88
 2.9296  25862.1  161.575
 3.1276  25349.7  159.499
 3.3256  25055.9  158.253
 3.5236  26242.4  161.73
 3.7216  24091.6  156.22
 3.9196  23666  154.039
 4.1176  23580.5  153.539
 4.3156  24347.6  156.193
 4.5136  26940.6  163.268
 4.7116  28043.3  167.719
 4.9096  27411.9  165.254
 5.1076  27115.6  164.943
 5.3056  27231.4  165.01
 5.5036  27059.6  164.404
 5.7016  27534.6  165.801
 5.8996  27895.3  166.11
 6.0976  28895.4  170.492
 6.2956  28867.3  169.742
 6.4936  29565.3  170.978
 6.6916  29667  172.267
 6.8896  30470.5  174.403
 7.0876  31502.9  178.105
 7.2856  31413.8  176.894
 7.4836  31454.7  176.447
 7.6816  32218.3  178.995
 7.8796  32999.5  181.178
 8.0776  34627.2  186.563
 8.2756  36405.6  189.913
 8.4736  36647.8  190.359
 8.6716  36238.1  189.913
 8.8696  37072.9  192.588
 9.0676  36074.5  189.301
 9.2656  35013.6  187.177
 9.4636  34252.3  183.609
 9.6616  33360.4  181.928
 9.8596  32866.8  180.042
 10.0576  30601.4  174.377
 10.2556  30098.9  173.391
 10.4536  29066.9  169.993
 10.6516  28483.4  168.489
 10.8496  27518  165.019
 11.0476  26728.6  162.645
 11.2456  25816.3  160.384
 11.4436  26388.4  161.32
 11.6416  25653.4  159.388
 11.8396  24661.7  156.494
 12.0376  24062.7  154.22
 12.2356  23586.1  153.096
 12.4336  23759.4  153.203
 12.6316  23662.8  153.156
 12.8296  23544.2  152.389
 13.0276  23887.2  153.704
 13.2256  24190.4  155.04
 13.4236  24224.5  154.92
 13.6216  24390.1  155.435
 13.8196  26431.5  161.28
 14.0176  23488.8  152.625
 14.2156  23076.7  150.303
 14.4136  22128.5  148.573
 14.6116  21720.5  146.39
 14.8096  20992  143.899
 15.0076  20163.4  144.908
 15.2056  19233.2  137.366
 15.4036  18227.1  134.54
 15.6016  18165.6  133.405
 15.7996  17489.9  131.169
 15.9976  17080.7  132.494
 16.1956  16855.3  129.508
 16.3936  16686.6  128.056
 16.5916  16155.3  126.635
 16.7896  16166  126.726
 16.9876  16268.9  128.596
 17.1856  15969.6  125.788
 17.3836  15545.8  124.018
 17.5816  15149.8  122.909
 17.7796  14954.4  122.044
 17.9776  14693  121.746
 18.1756  14767.4  120.799
 18.3736  14680.5  120.923
 18.5716  14358.7  119.346
 18.7696  14357.1  118.907
 18.9676  14082.7  117.563
 19.1656  13866.8  117.239
 19.3636  13773.2  117.042
 19.5616  13773.4  117.208
 19.7596  14031.8  117.694
 19.9576  14127.8  118.149
 20.1556  13991.9  118.095
 20.3536  13503.6  115.416
 20.5516  13234  114.687
 20.7496  12978.8  113.516
 20.9476  13020.4  113.458
 21.1456  12912.9  113.316
 21.3436  12692.6  112.298
 21.5416  12705.8  112.366
 21.7396  12558  111.555
 21.9376  12525.5  111.177
 22.1356  12503.7  111.21
 22.3336  12248.3  110.351
 22.5316  12219.2  110.311
 22.7296  12435.1  110.648
 22.9276  12222.7  110.359
 23.1256  12286.4  110.13
 23.3236  12565.7  111.945
 23.5216  12369.8  110.699
 23.7196  12325.3  110.463
 23.9176  12427.2  110.666
 24.1156  12057.8  109.465
 24.3136  11746.7  108.843
 24.5116  11803  108.632
 24.7096  11586.4  107.448
 24.9076  11414.1  106.669
 25.1056  11042  105.38
 25.3036  10895.4  104.193
 25.5016  10997  104.713
 25.6996  10862.8  103.661
 25.8976  10896.1  104.246
 26.0956  10896.6  104.263
 26.2936  10778.3  103.358
 26.4916  10987.5  104.204
 26.6896  10731.5  103.299
 26.8876  10628.3  102.658
 27.0856  10380.7  101.514
 27.2836  10230.4  100.729
 27.4816  10061.5  99.7716
 27.6796  10064.1  100.141
 27.8776  10404.4  101.688
 28.0756  9883.07  99.3861
 28.2736  10098.6  100.048
 28.4716  9735.67  98.2832
 28.6696  9887.4  98.8919
 28.8676  9681.6  98.2102
 29.0656  9647.87  98.0187
 29.2636  9629.43  97.716
 29.4616  9308.72  96.2534
 29.6596  9207.83  95.3069
 29.8576  9180.83  95.8384
 30.0556  9246.01  96.0546
 30.2536  9283.32  96.0463
 30.4516  9465.31  96.6268
 30.6496  9371.03  95.8751
 30.8476  9441.01  96.6741
 31.0456  9472.38  96.7902
 31.2436  9439.46  95.8992
 31.4416  9373.44  95.7419
 31.6396  9149.61  94.637
 31.8376  9281.24  94.8471
 32.0356  9255.55  95.2772
 32.2336  9187.86  94.3395
 32.4316  8820.05  92.7867
 32.6296  8803.03  92.5691
 32.8276  8807.01  92.3822
 33.0256  8792.51  92.3681
 33.2236  8949.06  93.34
 33.4216  8779.77  92.1421
 33.6196  8772.05  92.3927
 33.8176  8741.88  92.4036
 34.0156  8616.59  91.3689
 34.2136  8844.58  92.579
 34.4116  8533.56  91.2266
 34.6096  8419.88  90.3815
 34.8076  8446.76  90.9417
 35.0056  8346.23  90.0722
 35.2036  8568.28  91.4882
 35.4016  8339.57  90.1735
 35.5996  8323.06  90.1129
 35.7976  8215.37  89.7981
 35.9956  8391.91  90.4152
 36.1936  8458.85  90.6137
 36.3916  8222.21  89.4996
 36.5896  8234.85  90.592
 36.7876  7988.92  88.6284
 36.9856  7907.81  88.2037
 37.1836  7986.76  87.7548
 37.3816  7936.8  87.8389
 37.5796  7922.96  89.4691
 37.7776  8122.96  88.964
 37.9756  8138.22  88.9304
 38.1736  8013.26  88.4338
 38.3716  7983.64  88.5356
 38.5696  7949.51  88.7222
 38.7676  7814.3  87.4741
 38.9656  7889.06  87.5372
 39.1636  7926.69  88.009
 39.3616  7924.07  87.9338
 39.5596  7732.02  87.6876
 39.7576  7700.69  86.9039
 39.9556  7781.89  87.0007
 40.1536  7827.36  87.4523
 40.3516  7915.32  87.9557
 40.5496  7910.12  88.1761
 40.7476  7900.75  88.1368
 40.9456  7945.9  88.1355
 41.1436  8004.49  88.1811
 41.3416  7696.51  86.7685
 41.5396  7772.05  86.9715
 41.7376  7831.71  87.6307
 41.9356  7833.14  87.4854
 42.1336  7977.73  88.4423
 42.3316  7735.76  87.2955
 42.5296  7784.64  87.0919
 42.7276  7773.86  87.2692
 42.9256  7666.17  86.534
 43.1236  7769.18  87.2091
 43.3216  7774.4  86.9949
 43.5196  7684.74  86.5465
 43.7176  7732.95  87.2225
 43.9156  7415.29  85.3321
 44.1136  7372.67  84.6455
 44.3116  7548.97  85.6632
 44.5096  7386.36  85.0417
 44.7076  7582.72  86.0931
 44.9056  7669.59  86.452
 45.1036  7486.59  85.0414
 45.3016  7565.62  85.9916
 45.4996  7521.05  85.6688
 45.6976  7396.67  85.1416
 45.8956  7468.06  85.3637
 46.0936  7492.45  85.4557
 46.2916  7468.14  85.3511
 46.4896  7561.07  85.9039
 46.6876  7364.71  85.5001
 46.8856  7425.8  85.1048
 47.0836  7397.85  85.1978
 47.2816  7231.68  84.1216
 47.4796  7395.82  85.1704
 47.6776  7165.05  84.7781
 47.8756  7265.47  84.543
 48.0736  7283.14  85.0976
 48.2716  7230.57  84.6418
 48.4696  7369.3  85.0332
 48.6676  7345.4  85.4567
 48.8656  7219.86  84.4479
 49.0636  7335.36  85.064
 49.2616  7189.97  84.1594
 49.4596  7202.84  84.0439
 49.6576  7150.21  83.8168
 49.8556  7241.45  84.3682
 50.0536  7195.9  84.5488
 50.2516  7214.71  84.7987
 50.4496  7208.86  84.421
 50.6476  7237.2  84.2592
 50.8456  7058.54  83.2954
 51.0436  6961.17  83.1652
 51.2416  6963.43  82.8596
 51.4396  6862.12  82.6582
 51.6376  6951.4  83.0163
 51.8356  6882.49  82.2135
 52.0336  6937.86  83.0634
 52.2316  7000.11  83.8068
 52.4296  6824.12  82.441
 52.6276  6750.05  82.0954
 52.8256  6983.68  83.065
 53.0236  6988.01  83.7441
 53.2216  6898.69  83.2468
 53.4196  6818.64  82.6533
 53.6176  6817.06  83.1642
 53.8156  6843.6  82.9902
 54.0136  6615.79  81.7586
 54.2116  6658.2  81.6556
 54.4096  6546.7  81.0446
 54.6076  6528.69  81.2864
 54.8056  6444.45  80.5169
 55.0036  6484.58  81.1889
 55.2016  6528.1  80.9876
 55.3996  6336.1  79.7583
 55.5976  6398.28  80.3564
 55.7956  6368.98  79.9574
 55.9936  6475.28  80.7553
 56.1916  6342.38  79.966
 56.3896  6259.28  79.4033
 56.5876  6141.38  79.2233
 56.7856  6176.94  78.9482
 56.9836  6350.44  79.8142
 57.1816  6452.28  80.8227
 57.3796  6259.02  79.4308
 57.5776  6251.76  79.261
 57.7756  6085.45  78.8729
 57.9736  6145.5  78.9246
 58.1716  6063.72  78.6533
 58.3696  5888.71  77.2796
 58.5676  5953.73  77.1769
 58.7656  5802.58  76.8573
 58.9636  5867.4  77.3133
 59.1616  5869.4  77.4599
 59.3596  5883.71  76.8199
 59.5576  5784.77  76.228
 59.7556  5739.89  76.3394
 59.9536  5835.69  76.8745
 60.1516  5820.23  77.6058
 60.1996  0.0000000E+00  0.0000000E+00

File: 17_Db_f00092.xye
# /beamlines/bl04/projects/cycle2025-II/20250340211-lsimonelli/DATA/IS17_D/17_Db_f00092.xye : mythproc.py merge -s 0.006 -l 0.5 -f /beamlines/bl04/inhouse/ff/FlatField/ff_20Nov2024rod8mm60s_17keV.raw -b True -c true -o xye /beamlines/bl04/projects/cycle2025-II/20250340211-lsimonelli/DATA/IS17_D/17_Db_00092.dat
# IsMon = [6782937, 6779903, 6780978]  IsPos = [-1.5000, -2.4885, -3.4986]
# Wave = 0.4962  CalPath /beamlines/bl04/projects/cycle2025-II/20250340211-lsimonelli/DATA/Align/Si_Pos1_25keV_f00001.cal
# Date = 2025-09-24_19:21:00 Dt = 4.8000  Bin = 0.0060  <imon> = 6781273 +/- 1256 (Min/Max) 6779903 / 6782937
# icurr 252.2988  mocoIn 1.7209E-05  mocoOut 0.8071  i15 7.10581e+06  imon 6.78127e+06  i7 6.6667  iEMpd_timer 4.8000  iEMpd_1 3.4943E-08  iEMpd_2 7.7290E-08  iEMpd_3 1.7296E-08  iEMpd_4 4.7240E-08  iEMhp_timer 4.8000  iEMhp_1 4.9271E-06  iEMhp_2 -2.6164E-08  iEMhp_3 -2.4737E-08  iEMhp_4 -2.0251E-08
#      9776
 1.7416  70202.5  265.001
 1.9396  48681.2  220.96
 2.1376  35545.3  188.805
 2.3356  32034.2  178.861
 2.5336  29759.6  173.001
 2.7316  26976.4  164.849
 2.9296  26077.5  162.23
 3.1276  25375.2  159.569
 3.3256  24745.4  157.247
 3.5236  26554.6  162.836
 3.7216  24223.2  156.64
 3.9196  23587.1  153.768
 4.1176  23799.1  154.246
 4.3156  24664  157.203
 4.5136  26945.1  163.284
 4.7116  28105.1  167.896
 4.9096  27391.5  165.19
 5.1076  27226.1  165.263
 5.3056  27288.9  165.075
 5.5036  26830.8  163.721
 5.7016  27679.7  166.238
 5.8996  28103.9  166.73
 6.0976  28992.3  170.764
 6.2956  28902.9  169.852
 6.4936  29583.7  171.035
 6.6916  29959.6  173.107
 6.8896  30505.7  174.528
 7.0876  31927.6  179.205
 7.2856  31454  177.004
 7.4836  31992.3  177.86
 7.6816  32564.5  179.955
 7.8796  33376.2  182.223
 8.0776  34493.5  186.216
 8.2756  36516.3  190.218
 8.4736  36987.3  191.253
 8.6716  36089.1  189.543
 8.8696  37345.9  193.287
 9.0676  36336.8  189.986
 9.2656  35138.7  187.52
 9.4636  34151.4  183.339
 9.6616  33537.8  182.41
 9.8596  32770.5  179.765
 10.0576  30549.5  174.239
 10.2556  29833.9  172.618
 10.4536  29133.1  170.169
 10.6516  28767.7  169.322
 10.8496  27572.9  165.177
 11.0476  26573.7  162.129
 11.2456  25963.9  160.844
 11.4436  26291.1  161.024
 11.6416  26162.4  160.968
 11.8396  24701.2  156.604
 12.0376  24132.7  154.43
 12.2356  23713.4  153.538
 12.4336  23566.8  152.586
 12.6316  23822.4  153.654
 12.8296  23723.2  152.957
 13.0276  24011.3  154.101
 13.2256  24308  155.42
 13.4236  24002.5  154.208
 13.6216  24569.4  156.004
 13.8196  26750.3  162.258
 14.0176  23491.8  152.637
 14.2156  23179.3  150.639
 14.4136  22071.1  148.373
 14.6116  21589.7  145.952
 14.8096  21095.3  144.255
 15.0076  20070.4  144.577
 15.2056  19347.8  137.783
 15.4036  18377.2  135.11
 15.6016  18013.9  132.858
 15.7996  17433.4  130.966
 15.9976  17231.2  133.079
 16.1956  16935.9  129.789
 16.3936  16633.8  127.841
 16.5916  16390.3  127.546
 16.7896  16300.5  127.254
 16.9876  16108.2  127.949
 17.1856  15798.2  125.114
 17.3836  15620.6  124.312
 17.5816  15215.7  123.156
 17.7796  15123.1  122.724
 17.9776  14737.1  121.92
 18.1756  14748  120.72
 18.3736  14624  120.692
 18.5716  14490  119.886
 18.7696  14475.6  119.4
 18.9676  14244.6  118.23
 19.1656  13838.2  117.122
 19.3636  13946.8  117.779
 19.5616  13713.9  116.955
 19.7596  14045.3  117.755
 19.9576  14183.9  118.38
 20.1556  14093.2  118.535
 20.3536  13541.6  115.579
 20.5516  13389  115.36
 20.7496  13067.3  113.818
 20.9476  13007.7  113.396
 21.1456  12868.1  113.122
 21.3436  12760.6  112.598
 21.5416  12726.7  112.46
 21.7396  12608.6  111.778
 21.9376  12464.6  110.914
 22.1356  12616.9  111.739
 22.3336  12234.1  110.277
 22.5316  12276  110.57
 22.7296  12273.9  109.941
 22.9276  12156.8  110.069
 23.1256  12314.2  110.266
 23.3236  12606.4  112.123
 23.5216  12375.6  110.72
 23.7196  12374.8  110.887
 23.9176  12475.5  110.879
 24.1156  12258.5  110.368
 24.3136  11968  109.858
 24.5116  11913.6  109.131
 24.7096  11596.1  107.485
 24.9076  11488.8  107.009
 25.1056  11179.7  105.758
 25.3036  11004.4  104.708
 25.5016  10916.8  104.324
 25.6996  10943.7  104.042
 25.8976  11062  105.026
 26.0956  10837.4  103.98
 26.2936  10776.8  103.347
 26.4916  10975.2  104.151
 26.6896  10736.2  103.317
 26.8876  10546.4  102.258
 27.0856  10457.9  101.851
 27.2836  10284.1  101.089
 27.4816  10050.3  99.7143
 27.6796  10162.8  100.632
 27.8776  10375.9  101.531
 28.0756  9934.01  99.6431
 28.2736  9961.41  99.3567
 28.4716  9777.82  98.4991
 28.6696  9801.36  98.462
 28.8676  9732.79  98.4674
 29.0656  9642.19  97.977
 29.2636  9690.83  97.9382
 29.4616  9357.42  96.5126
 29.6596  9332.99  95.9591
 29.8576  9223.78  96.0703
 30.0556  9155.46  95.5872
 30.2536  9314.78  96.2173
 30.4516  9473.12  96.6479
 30.6496  9602.18  97.0437
 30.8476  9383.63  96.3765
 31.0456  9374.4  96.2892
 31.2436  9457.56  95.978
 31.4416  9164.2  94.6667
 31.6396  9264.79  95.2298
 31.8376  9368.68  95.2731
 32.0356  9190.85  94.9369
 32.2336  9183.13  94.3122
 32.4316  8822.22  92.8428
 32.6296  8897.69  93.0064
 32.8276  8949.71  93.1316
 33.0256  8745.76  92.1303
 33.2236  8868.1  92.9055
 33.4216  8732.09  91.8866
 33.6196  8739.74  92.2227
 33.8176  8777.99  92.5828
 34.0156  8765.01  92.1491
 34.2136  8781.33  92.2516
 34.4116  8430.92  90.5657
 34.6096  8488.04  90.7505
 34.8076  8350.1  90.4174
 35.0056  8424.15  90.4846
 35.2036  8704.75  92.206
 35.4016  8294.45  89.9276
 35.5996  8316.21  90.0751
 35.7976  8262.82  90.0625
 35.9956  8520.95  91.0935
 36.1936  8405.37  90.3304
 36.3916  8259.81  89.7425
 36.5896  8220.42  90.977
 36.7876  8025.31  88.8389
 36.9856  7921.71  88.2833
 37.1836  8009.66  87.8923
 37.3816  7949.51  87.9193
 37.5796  8011.11  89.9682
 37.7776  8012.65  88.3412
 37.9756  8043.64  88.3988
 38.1736  8112.52  88.9742
 38.3716  7943.85  88.3069
 38.5696  7938.31  88.6493
 38.7676  7913.26  88.0309
 38.9656  7902.96  87.6018
 39.1636  7918.59  87.9363
 39.3616  7872.73  87.6459
 39.5596  7712.04  87.5609
 39.7576  7690.43  86.842
 39.9556  7852.26  87.3951
 40.1536  7904.54  87.8769
 40.3516  7855.33  87.7012
 40.5496  7944.74  88.1569
 40.7476  7996.25  88.6535
 40.9456  8008.14  88.4824
 41.1436  8011.63  88.2159
 41.3416  7794.83  87.3543
 41.5396  7770.94  87.0337
 41.7376  7802.55  87.4509
 41.9356  7783.73  87.2098
 42.1336  7922.3  88.1271
 42.3316  7702.91  87.1118
 42.5296  7829.82  87.3374
 42.7276  7819.98  87.5264
 42.9256  7700.68  86.7266
 43.1236  7722.78  86.954
 43.3216  7692.89  86.6302
 43.5196  7722.76  86.7637
 43.7176  7685.19  86.952
 43.9156  7512.6  85.8974
 44.1136  7319.94  84.3489
 44.3116  7509.06  85.4369
 44.5096  7397.76  85.115
 44.7076  7535.47  85.8328
 44.9056  7516.72  85.5757
 45.1036  7747.49  86.5044
 45.3016  7534.18  85.8043
 45.4996  7502.94  85.5698
 45.6976  7351.13  84.8801
 45.8956  7544.5  85.8019
 46.0936  7564.92  85.6671
 46.2916  7592.22  86.0568
 46.4896  7496.37  85.5285
 46.6876  7420  85.8058
 46.8856  7306.27  84.5393
 47.0836  7364.82  84.9993
 47.2816  7274.88  84.3717
 47.4796  7465.79  85.5779
 47.6776  7263.84  85.3567
 47.8756  7303.21  84.7658
 48.0736  7437.79  85.9821
 48.2716  7218.62  84.5368
 48.4696  7489.4  85.6873
 48.6676  7364.63  85.5781
 48.8656  7325.19  85.0707
 49.0636  7439.83  85.6777
 49.2616  7246.36  84.6036
 49.4596  7257.45  84.199
 49.6576  7191.03  84.0496
 49.8556  7197.17  84.1144
 50.0536  7309.27  85.2217
 50.2516  7231.83  84.8745
 50.4496  7219.59  84.4842
 50.6476  7260.96  84.3991
 50.8456  7233.61  84.3078
 51.0436  6953.53  83.1363
 51.2416  6946.1  82.7626
 51.4396  6847  82.5692
 51.6376  6968.24  83.1207
 51.8356  6903.11  82.3493
 52.0336  6870.92  82.6583
 52.2316  6936.91  83.4212
 52.4296  6913.72  82.9832
 52.6276  6778.24  82.2709
 52.8256  6969.21  82.9765
 53.0236  7002.31  83.8227
 53.2216  6966.65  83.6248
 53.4196  6857.37  82.896
 53.6176  6903.52  83.6815
 53.8156  6729.61  82.2924
 54.0136  6591.51  81.6109
 54.2116  6758.06  82.2664
 54.4096  6515.4  80.8481
 54.6076  6550.17  81.3989
 54.8056  6457.98  80.6141
 55.0036  6599.04  81.7355
 55.2016  6500.58  80.7139
 55.3996  6409.11  80.2224
 55.5976  6424.23  80.494
 55.7956  6374.41  80.0089
 55.9936  6486.36  80.8079
 56.1916  6323.85  79.8424
 56.3896  6251.69  79.3655
 56.5876  6244.02  79.8813
 56.7856  6246.18  79.3918
 56.9836  6329.43  79.6785
 57.1816  6427.05  80.6537
 57.3796  6143.93  78.6604
 57.5776  6123  78.4478
 57.7756  6129.17  79.125
 57.9736  6119.24  78.7485
 58.1716  6096.27  78.8651
 58.3696  5866.32  77.141
 58.5676  6025.45  77.6447
 58.7656  5899.83  77.5063
 58.9636  5893.06  77.4846
 59.1616  5941.74  77.9362
 59.3596  5984.54  77.4821
 59.5576  5974.81  77.4759
 59.7556  5645.24  75.7133
 59.9536  6083.45  78.4954
 60.1516  6024.06  78.9591
 60.1996  0.0000000E+00  0.0000000E+00