Folder: echemistpy/docs/examples/opeando_xrd/IS17_D/Data/IS17_D (part 87)

File: 17_Db_f00069.xye
# /beamlines/bl04/projects/cycle2025-II/20250340211-lsimonelli/DATA/IS17_D/17_Db_f00069.xye : mythproc.py merge -s 0.006 -l 0.5 -f /beamlines/bl04/inhouse/ff/FlatField/ff_20Nov2024rod8mm60s_17keV.raw -b True -c true -o xye /beamlines/bl04/projects/cycle2025-II/20250340211-lsimonelli/DATA/IS17_D/17_Db_00069.dat
# IsMon = [6746192, 6748747, 6746336]  IsPos = [-1.4999, -2.4884, -3.4988]
# Wave = 0.4962  CalPath /beamlines/bl04/projects/cycle2025-II/20250340211-lsimonelli/DATA/Align/Si_Pos1_25keV_f00001.cal
# Date = 2025-09-24_12:54:38 Dt = 4.8000  Bin = 0.0060  <imon> = 6747092 +/- 1172 (Min/Max) 6746192 / 6748747
# icurr 249.0265  mocoIn 1.6998E-05  mocoOut 0.7976  i15 7.06742e+06  imon 6.74709e+06  i7 6.0000  iEMpd_timer 4.8000  iEMpd_1 3.2401E-08  iEMpd_2 7.7941E-08  iEMpd_3 1.5348E-08  iEMpd_4 4.7907E-08  iEMhp_timer 4.8000  iEMhp_1 4.8673E-06  iEMhp_2 -2.4605E-08  iEMhp_3 -2.3995E-08  iEMhp_4 -2.2283E-08
#      9776
 1.7416  68479.8  261.779
 1.9396  47272.2  217.779
 2.1376  34483.7  185.999
 2.3356  30979  175.924
 2.5336  30146.7  174.155
 2.7316  26323.1  162.838
 2.9296  25159  159.354
 3.1276  24610.2  157.149
 3.3256  23786.2  154.159
 3.5236  25441.8  159.227
 3.7216  23322.4  153.708
 3.9196  23013.9  151.9
 4.1176  22662.9  150.531
 4.3156  23737.8  154.225
 4.5136  26534.1  162.027
 4.7116  27174.4  165.103
 4.9096  26667.1  162.987
 5.1076  26165.9  162.028
 5.3056  26204.2  161.877
 5.5036  25713.4  160.256
 5.7016  26320.6  162.108
 5.8996  26761.4  162.699
 6.0976  27656.5  166.796
 6.2956  27829.5  166.67
 6.4936  28847  168.885
 6.6916  29061.2  170.486
 6.8896  29887.3  172.744
 7.0876  30745.2  175.948
 7.2856  30696.1  174.87
 7.4836  31509  176.518
 7.6816  32098.3  178.666
 7.8796  32875  180.822
 8.0776  35788.3  189.663
 8.2756  36736.3  190.777
 8.4736  36680  190.435
 8.6716  36102.6  189.546
 8.8696  37334.7  193.28
 9.0676  36659  190.841
 9.2656  34764.9  186.543
 9.4636  33970.6  182.869
 9.6616  33328.4  181.861
 9.8596  32634.5  179.378
 10.0576  30708.7  174.678
 10.2556  29727.2  172.309
 10.4536  32107.2  178.656
 10.6516  32070.7  178.773
 10.8496  27281.4  164.31
 11.0476  27072.4  163.693
 11.2456  28396.5  168.202
 11.4436  26633.6  162.065
 11.6416  25537.6  159.038
 11.8396  24345.2  155.486
 12.0376  23828  153.471
 12.2356  24719.1  156.725
 12.4336  24183.3  154.573
 12.6316  23384.7  152.253
 12.8296  23902.6  153.543
 13.0276  23853.3  153.597
 13.2256  23866  153.993
 13.4236  23940.3  154.005
 13.6216  24214.7  154.88
 13.8196  26902.8  162.707
 14.0176  23355.9  152.189
 14.2156  22992.2  150.043
 14.4136  21808.5  147.489
 14.6116  21458.4  145.509
 14.8096  20742  143.05
 15.0076  19964.6  144.198
 15.2056  18790.6  135.77
 15.4036  18018.8  133.763
 15.6016  17618.4  131.377
 15.7996  17164.9  129.952
 15.9976  17016  132.262
 16.1956  16765.7  129.179
 16.3936  16451.2  127.136
 16.5916  16263.8  127.066
 16.7896  16226.1  126.982
 16.9876  15973.5  127.412
 17.1856  15727  124.816
 17.3836  15220.4  122.708
 17.5816  14933.6  122.022
 17.7796  15083.8  122.556
 17.9776  14802.3  122.202
 18.1756  15572.3  124.046
 18.3736  15393.5  123.821
 18.5716  14345.1  119.292
 18.7696  14251.4  118.47
 18.9676  14160.3  117.891
 19.1656  13804.2  116.978
 19.3636  13726.5  116.835
 19.5616  13710.7  116.937
 19.7596  13900.1  117.154
 19.9576  14495.9  119.665
 20.1556  13432.6  115.714
 20.3536  13349  114.746
 20.5516  13156.7  114.358
 20.7496  12831.2  112.873
 20.9476  13182.3  114.169
 21.1456  13156  114.376
 21.3436  12732.5  112.472
 21.5416  12560.2  111.717
 21.7396  12435.8  111.01
 21.9376  12484.5  111.007
 22.1356  12711.1  112.124
 22.3336  12430.9  111.164
 22.5316  12229.2  110.353
 22.7296  12106.4  109.178
 22.9276  12110.9  109.852
 23.1256  12447.6  110.854
 23.3236  12345  110.967
 23.5216  12330.8  110.537
 23.7196  12267.6  110.215
 23.9176  12267.9  109.962
 24.1156  11951.8  109.001
 24.3136  11848.2  109.311
 24.5116  11841.8  108.8
 24.7096  11774.5  108.291
 24.9076  11539.4  107.25
 25.1056  11191.2  106.082
 25.3036  10864.5  104.043
 25.5016  10980.6  104.638
 25.6996  10862.3  103.655
 25.8976  11173.7  105.567
 26.0956  10867.2  104.125
 26.2936  10780.5  103.368
 26.4916  10907.4  103.841
 26.6896  10767.1  103.466
 26.8876  10514  102.101
 27.0856  10438.6  101.8
 27.2836  10279.2  100.909
 27.4816  10346.1  101.169
 27.6796  10254.1  101.083
 27.8776  10498.2  102.131
 28.0756  10086.1  100.401
 28.2736  10055.8  99.8311
 28.4716  9851.6  98.8634
 28.6696  9890.35  98.9084
 28.8676  9511.99  97.3443
 29.0656  9617.3  97.8569
 29.2636  9546.61  97.2883
 29.4616  9314.48  96.2821
 29.6596  9306.31  95.8137
 29.8576  9126.32  95.549
 30.0556  9256.78  96.1086
 30.2536  9210.86  95.6702
 30.4516  9351.18  96.0527
 30.6496  9350.95  95.78
 30.8476  9327.03  96.0933
 31.0456  9352.41  96.1967
 31.2436  9280.25  95.0867
 31.4416  9252.91  95.122
 31.6396  9570.47  96.7863
 31.8376  9219.35  94.5189
 32.0356  9177.64  94.8786
 32.2336  9128.28  94.0329
 32.4316  8829.08  92.8758
 32.6296  8789.33  92.5053
 32.8276  8962.68  93.203
 33.0256  8752.27  92.1649
 33.2236  8926.17  93.2179
 33.4216  8808.27  92.296
 33.6196  8727.97  92.1541
 33.8176  8669.38  92.0155
 34.0156  8585.87  91.1984
 34.2136  8637.37  91.5062
 34.4116  8424.86  90.5287
 34.6096  8485.96  90.7341
 34.8076  8482.2  91.1298
 35.0056  8583.46  91.3432
 35.2036  8588.72  91.6002
 35.4016  8345.4  90.2048
 35.5996  8370.01  90.3626
 35.7976  8363  90.5969
 35.9956  8466.63  90.8156
 36.1936  8341.02  89.983
 36.3916  8297.33  89.9495
 36.5896  8248.46  90.6668
 36.7876  8111.79  89.3092
 36.9856  7893.78  88.1275
 37.1836  7939.97  87.4985
 37.3816  7919.79  87.7509
 37.5796  8012.92  89.9772
 37.7776  8052.48  88.5776
 37.9756  8103.07  88.7381
 38.1736  8099.46  88.9148
 38.3716  8141.42  89.4196
 38.5696  7883.71  88.3448
 38.7676  7778.25  87.2789
 38.9656  7923.34  87.7163
 39.1636  7813.67  87.3783
 39.3616  7917.66  87.8915
 39.5596  7766.84  87.8874
 39.7576  7765.44  87.2709
 39.9556  7805.63  87.1342
 40.1536  7925.95  87.9995
 40.3516  7923.47  87.9996
 40.5496  7900.41  88.1228
 40.7476  8038.09  88.8962
 40.9456  7953.88  88.1813
 41.1436  7949.38  87.8781
 41.3416  7741.14  87.0527
 41.5396  7805.27  87.2238
 41.7376  7705.28  86.9128
 41.9356  7829.83  87.4814
 42.1336  7890.16  87.9578
 42.3316  7760.15  87.4275
 42.5296  7816.95  87.2736
 42.7276  7862.93  87.7666
 42.9256  7760.86  87.07
 43.1236  7735.8  87.0269
 43.3216  7746.96  86.8391
 43.5196  7731.16  86.8111
 43.7176  7628.96  86.6317
 43.9156  7404.19  85.2661
 44.1136  7579.68  85.8237
 44.3116  7536.03  85.5892
 44.5096  7387.52  85.0438
 44.7076  7417.88  85.1532
 44.9056  7493.88  85.4638
 45.1036  7547.68  85.3825
 45.3016  7548.9  85.9018
 45.4996  7592.22  86.0885
 45.6976  7453.67  85.4754
 45.8956  7457.69  85.3036
 46.0936  7606.92  86.1618
 46.2916  7555.34  85.8386
 46.4896  7510.05  85.5968
 46.6876  7399.12  85.7033
 46.8856  7263.13  84.1758
 47.0836  7350.11  84.9239
 47.2816  7257.75  84.2694
 47.4796  7334.97  84.8174
 47.6776  7262.14  85.359
 47.8756  7295.8  84.7211
 48.0736  7312.85  85.2796
 48.2716  7233.23  84.6255
 48.4696  7399.42  85.1838
 48.6676  7298.92  85.195
 48.8656  7347.59  85.202
 49.0636  7421.09  85.5777
 49.2616  7170.17  84.145
 49.4596  7251.59  84.1682
 49.6576  7166.12  83.9058
 49.8556  7199.33  84.1264
 50.0536  7255.32  84.9128
 50.2516  7159.6  84.479
 50.4496  7321.76  85.0777
 50.6476  7237  84.2564
 50.8456  7237.18  84.3495
 51.0436  6997.13  83.3881
 51.2416  6924.73  82.6298
 51.4396  6833  82.4796
 51.6376  6945.33  82.9722
 51.8356  6934.33  82.5191
 52.0336  6903.16  82.8696
 52.2316  6836.53  82.8266
 52.4296  6875.44  82.7602
 52.6276  6851.65  82.7254
 52.8256  6877.84  82.4403
 53.0236  6962.22  83.5817
 53.2216  6963  83.6266
 53.4196  6806.22  82.5941
 53.6176  6896.76  83.6448
 53.8156  6756.49  82.4566
 54.0136  6569.34  81.4818
 54.2116  6725.2  82.0696
 54.4096  6537  80.9782
 54.6076  6464.31  80.8774
 54.8056  6454.89  80.5902
 55.0036  6482.42  81.175
 55.2016  6629.79  81.587
 55.3996  6404.55  80.2013
 55.5976  6447.85  80.6616
 55.7956  6394.86  80.1201
 55.9936  6461.05  80.6698
 56.1916  6356.35  80.0545
 56.3896  6190.57  78.9862
 56.5876  6226.69  79.7629
 56.7856  6234.61  79.3205
 56.9836  6321.23  79.6389
 57.1816  6362.02  80.2637
 57.3796  6144.59  78.6947
 57.5776  6137.76  78.55
 57.7756  6134.14  79.1791
 57.9736  6135.86  78.8542
 58.1716  6144.94  79.1888
 58.3696  5785.62  76.5988
 58.5676  5922.11  76.975
 58.7656  5940.42  77.7605
 58.9636  5840.57  77.1366
 59.1616  5871.31  77.4648
 59.3596  5809.27  76.3414
 59.5576  5884.62  76.8916
 59.7556  5925.35  77.5716
 59.9536  5934.75  77.5329
 60.1516  5785.77  77.3844
 60.1996  0.0000000E+00  0.0000000E+00

File: 17_Db_f00070.xye
# /beamlines/bl04/projects/cycle2025-II/20250340211-lsimonelli/DATA/IS17_D/17_Db_f00070.xye : mythproc.py merge -s 0.006 -l 0.5 -f /beamlines/bl04/inhouse/ff/FlatField/ff_20Nov2024rod8mm60s_17keV.raw -b True -c true -o xye /beamlines/bl04/projects/cycle2025-II/20250340211-lsimonelli/DATA/IS17_D/17_Db_00070.dat
# IsMon = [6754991, 6756831, 6755977]  IsPos = [-1.4999, -2.4884, -3.4988]
# Wave = 0.4962  CalPath /beamlines/bl04/projects/cycle2025-II/20250340211-lsimonelli/DATA/Align/Si_Pos1_25keV_f00001.cal
# Date = 2025-09-24_13:11:12 Dt = 4.8000  Bin = 0.0060  <imon> = 6755933 +/- 752 (Min/Max) 6754991 / 6756831
# icurr 249.8481  mocoIn 1.7049E-05  mocoOut 0.7993  i15 7.07591e+06  imon 6.75593e+06  i7 4.6667  iEMpd_timer 4.8000  iEMpd_1 3.4524E-08  iEMpd_2 7.8039E-08  iEMpd_3 1.6730E-08  iEMpd_4 4.8367E-08  iEMhp_timer 4.8000  iEMhp_1 4.8799E-06  iEMhp_2 -2.4151E-08  iEMhp_3 -2.4352E-08  iEMhp_4 -2.1582E-08
#      9776
 1.7416  68712.2  262.224
 1.9396  47074  217.317
 2.1376  34482.3  185.996
 2.3356  30848.1  175.552
 2.5336  30110.1  174.05
 2.7316  26501.8  163.393
 2.9296  24992.9  158.828
 3.1276  24720.9  157.51
 3.3256  23823  154.285
 3.5236  25276.4  158.725
 3.7216  23409.3  153.993
 3.9196  23094.5  152.161
 4.1176  22821.4  151.044
 4.3156  23722  154.174
 4.5136  26525.3  162.003
 4.7116  27330.1  165.568
 4.9096  26499.8  162.48
 5.1076  26300.8  162.446
 5.3056  26146.4  161.691
 5.5036  25865.7  160.732
 5.7016  26297  162.03
 5.8996  26896.9  163.108
 6.0976  27760.9  167.1
 6.2956  27801.7  166.586
 6.4936  28533.5  167.955
 6.6916  28965.6  170.215
 6.8896  30178.4  173.567
 7.0876  30736.2  175.917
 7.2856  30581.8  174.544
 7.4836  31459.1  176.369
 7.6816  32057.1  178.552
 7.8796  33105.3  181.452
 8.0776  36271.1  190.938
 8.2756  36793.6  190.924
 8.4736  36762.9  190.653
 8.6716  36296.6  190.06
 8.8696  37584.7  193.92
 9.0676  36849.1  191.34
 9.2656  34751.8  186.487
 9.4636  34173.5  183.409
 9.6616  33547  182.446
 9.8596  32547.8  179.153
 10.0576  30691  174.628
 10.2556  29935.6  172.918
 10.4536  32856.6  180.733
 10.6516  32595.3  180.235
 10.8496  27225.6  164.14
 11.0476  27182.8  164.032
 11.2456  28954  169.847
 11.4436  26454.7  161.523
 11.6416  25402.3  158.61
 11.8396  24530.6  156.075
 12.0376  23827.9  153.47
 12.2356  24952.9  157.465
 12.4336  24228  154.708
 12.6316  23455.7  152.486
 12.8296  23989.6  153.829
 13.0276  23925.3  153.824
 13.2256  23897.5  154.096
 13.4236  24050.3  154.363
 13.6216  24291.3  155.132
 13.8196  26916.4  162.75
 14.0176  23520.2  152.723
 14.2156  22907  149.753
 14.4136  21666.2  147.005
 14.6116  21470.2  145.556
 14.8096  20688.5  142.858
 15.0076  20086.1  144.628
 15.2056  18864.5  136.04
 15.4036  18062.7  133.93
 15.6016  17727.1  131.782
 15.7996  17495.6  131.195
 15.9976  16999.4  132.184
 16.1956  16550.9  128.342
 16.3936  16330.5  126.687
 16.5916  16280.4  127.125
 16.7896  16234.7  127.006
 16.9876  15980.2  127.441
 17.1856  15823.3  125.209
 17.3836  15114  122.282
 17.5816  15062  122.55
 17.7796  15060.2  122.473
 17.9776  14866.5  122.459
 18.1756  15785.3  124.891
 18.3736  15482  124.174
 18.5716  14325.2  119.209
 18.7696  14315.7  118.736
 18.9676  14068.6  117.501
 19.1656  13855.3  117.193
 19.3636  13649.2  116.509
 19.5616  13748.3  117.102
 19.7596  14065.1  117.842
 19.9576  14406.5  119.303
 20.1556  13362.2  115.408
 20.3536  13261.8  114.376
 20.5516  13017.9  113.752
 20.7496  12926.4  113.291
 20.9476  13303  114.687
 21.1456  13158.5  114.388
 21.3436  12719.6  112.414
 21.5416  12702.2  112.353
 21.7396  12494.6  111.276
 21.9376  12453.6  110.867
 22.1356  12736.8  112.239
 22.3336  12371.5  110.9
 22.5316  12383.4  111.046
 22.7296  12122.6  109.251
 22.9276  12001.5  109.356
 23.1256  12589.3  111.482
 23.3236  12567.3  111.958
 23.5216  12361.7  110.671
 23.7196  12305.7  110.381
 23.9176  12252.6  109.896
 24.1156  12084.5  109.592
 24.3136  11951.7  109.788
 24.5116  12006.9  109.562
 24.7096  11721.7  108.06
 24.9076  11608  107.572
 25.1056  11265.7  106.429
 25.3036  10923.9  104.326
 25.5016  11046.5  104.951
 25.6996  10802.7  103.371
 25.8976  11127.1  105.352
 26.0956  10960.4  104.565
 26.2936  10792.5  103.427
 26.4916  11002.8  104.287
 26.6896  10597  102.645
 26.8876  10607.3  102.557
 27.0856  10475.5  101.978
 27.2836  10278.9  100.905
 27.4816  10321.5  101.051
 27.6796  10100  100.322
 27.8776  10606.3  102.666
 28.0756  10034.9  100.15
 28.2736  10062.7  99.8651
 28.4716  9837.37  98.7985
 28.6696  9830.43  98.6073
 28.8676  9659.22  98.092
 29.0656  9637.27  97.9593
 29.2636  9617.01  97.6488
 29.4616  9275.15  96.0766
 29.6596  9282.46  95.6907
 29.8576  9096.97  95.3973
 30.0556  9357.59  96.6372
 30.2536  9303.27  96.1462
 30.4516  9434.8  96.4746
 30.6496  9506.16  96.5589
 30.8476  9366.95  96.2958
 31.0456  9361.64  96.2444
 31.2436  9311.04  95.245
 31.4416  9285.28  95.2944
 31.6396  9591.45  96.8918
 31.8376  9317.01  95.0323
 32.0356  9217.81  95.0856
 32.2336  9088.9  93.83
 32.4316  8819.85  92.8234
 32.6296  8812.45  92.624
 32.8276  8873.15  92.7329
 33.0256  8868.5  92.7791
 33.2236  8882.15  92.9827
 33.4216  8702.56  91.7359
 33.6196  8635.15  91.6718
 33.8176  8770.2  92.5535
 34.0156  8670.36  91.6493
 34.2136  8753.54  92.1073
 34.4116  8503.02  90.9476
 34.6096  8535.87  91.0007
 34.8076  8399.14  90.6844
 35.0056  8504.39  90.9185
 35.2036  8669.55  92.0295
 35.4016  8283.93  89.8688
 35.5996  8357.52  90.3002
 35.7976  8260.79  90.0508
 35.9956  8496.69  90.978
 36.1936  8379.25  90.2084
 36.3916  8183.61  89.3325
 36.5896  8283.79  90.8593
 36.7876  8027.47  88.8443
 36.9856  7914.56  88.2402
 37.1836  7904.66  87.3073
 37.3816  7869.1  87.4691
 37.5796  7972.97  89.7509
 37.7776  8134.11  89.0182
 37.9756  8143.07  88.96
 38.1736  8278.4  89.8854
 38.3716  8031.8  88.8019
 38.5696  7815.4  87.9772
 38.7676  7698.4  86.8258
 38.9656  7988.05  88.0809
 39.1636  7900.87  87.8672
 39.3616  7978.92  88.234
 39.5596  7724.53  87.6452
 39.7576  7845.69  87.7188
 39.9556  7902.44  87.6733
 40.1536  7906.3  87.8938
 40.3516  7984.85  88.332
 40.5496  7895.86  88.0902
 40.7476  7935.56  88.3229
 40.9456  7987.67  88.3697
 41.1436  8070.05  88.5474
 41.3416  7826.01  87.5271
 41.5396  7866.61  87.5613
 41.7376  7798.76  87.4448
 41.9356  7751.13  87.0291
 42.1336  8004.84  88.5932
 42.3316  7748.08  87.3614
 42.5296  7821.73  87.2966
 42.7276  7752.52  87.1449
 42.9256  7663.91  86.5237
 43.1236  7716.28  86.918
 43.3216  7795.3  87.114
 43.5196  7684.36  86.5508
 43.7176  7637.07  86.6679
 43.9156  7508.63  85.8664
 44.1136  7508.19  85.4183
 44.3116  7482.57  85.2855
 44.5096  7374.27  84.9686
 44.7076  7475.68  85.4834
 44.9056  7557.99  85.8254
 45.1036  7610.09  85.7411
 45.3016  7478.65  85.4953
 45.4996  7610.75  86.1911
 45.6976  7500.06  85.7397
 45.8956  7497.93  85.5358
 46.0936  7596.07  86.1001
 46.2916  7452.22  85.2524
 46.4896  7558.15  85.8826
 46.6876  7494.3  86.2447
 46.8856  7395.26  84.9403
 47.0836  7325.36  84.7831
 47.2816  7180.21  83.8187
 47.4796  7387.26  85.1226
 47.6776  7301.85  85.5842
 47.8756  7322.26  84.8755
 48.0736  7282.14  85.0993
 48.2716  7266.12  84.8207
 48.4696  7302.79  84.6249
 48.6676  7371.8  85.6129
 48.8656  7392.23  85.4576
 49.0636  7457.42  85.7862
 49.2616  7152.73  84.0466
 49.4596  7201.13  83.8882
 49.6576  7203.54  84.1319
 49.8556  7224.19  84.2734
 50.0536  7207.95  84.6205
 50.2516  7321.67  85.4167
 50.4496  7218.18  84.4742
 50.6476  7293.45  84.5838
 50.8456  7207.53  84.1722
 51.0436  6895.44  82.7801
 51.2416  7040.37  83.3144
 51.4396  6863.85  82.6665
 51.6376  7011.88  83.3626
 51.8356  6924.67  82.4738
 52.0336  6915.62  82.9389
 52.2316  6964.32  83.5819
 52.4296  6840.23  82.5445
 52.6276  6890.21  82.9526
 52.8256  6924.91  82.7176
 53.0236  6962.7  83.5859
 53.2216  7000.15  83.8494
 53.4196  6818.5  82.6567
 53.6176  6902.61  83.6799
 53.8156  6863.51  83.1028
 54.0136  6602.68  81.6707
 54.2116  6720.36  82.036
 54.4096  6607.5  81.4155
 54.6076  6549.96  81.4016
 54.8056  6527.71  81.0466
 55.0036  6468.35  81.0857
 55.2016  6688.69  81.9649
 55.3996  6328.14  79.7029
 55.5976  6413.49  80.4292
 55.7956  6344.23  79.8169
 55.9936  6427.68  80.4567
 56.1916  6350.86  80.0112
 56.3896  6193.25  79.0053
 56.5876  6249.91  79.9064
 56.7856  6279.55  79.6042
 56.9836  6339.11  79.7417
 57.1816  6348.94  80.1649
 57.3796  6230.16  79.2415
 57.5776  6250.68  79.2682
 57.7756  6201.02  79.6228
 57.9736  6089.09  78.549
 58.1716  6106.28  78.9342
 58.3696  5919.86  77.4833
 58.5676  5978.45  77.3346
 58.7656  5978.23  78.0102
 58.9636  5849.93  77.1976
 59.1616  6028.2  78.4952
 59.3596  5982.49  77.4657
 59.5576  5911.8  77.0644
 59.7556  5854.72  77.1033
 59.9536  5966.63  77.7362
 60.1516  5886.55  78.0508
 60.1996  0.0000000E+00  0.0000000E+00