Folder: echemistpy/docs/examples/opeando_xrd/IS17_D/Data/IS17_D (part 52)

File: 17_Da_f00133.xye
# /beamlines/bl04/projects/cycle2025-II/20250340211-lsimonelli/DATA/IS17_D/17_Da_f00133.xye : mythproc.py merge -s 0.006 -l 0.5 -f /beamlines/bl04/inhouse/ff/FlatField/ff_20Nov2024rod8mm60s_17keV.raw -b True -c true -o xye /beamlines/bl04/projects/cycle2025-II/20250340211-lsimonelli/DATA/IS17_D/17_Da_00133.dat
# IsMon = [6778536, 6776074, 6768377]  IsPos = [-1.4999, -2.4884, -3.4988]
# Wave = 0.4962  CalPath /beamlines/bl04/projects/cycle2025-II/20250340211-lsimonelli/DATA/Align/Si_Pos1_25keV_f00001.cal
# Date = 2025-09-25_06:37:41 Dt = 4.8000  Bin = 0.0060  <imon> = 6774329 +/- 4327 (Min/Max) 6768377 / 6778536
# icurr 253.1169  mocoIn 1.7260E-05  mocoOut 0.8115  i15 7.09176e+06  imon 6.77433e+06  i7 4.6667  iEMpd_timer 4.8000  iEMpd_1 3.4480E-08  iEMpd_2 7.9464E-08  iEMpd_3 1.7505E-08  iEMpd_4 4.8377E-08  iEMhp_timer 4.8000  iEMhp_1 4.9444E-06  iEMhp_2 -2.7179E-08  iEMhp_3 -2.4253E-08  iEMhp_4 -2.0472E-08
#      9776
 1.7416  70319.9  265.173
 1.9396  46229.2  215.273
 2.1376  32909.8  181.636
 2.3356  29093.8  170.423
 2.5336  27335.3  165.774
 2.7316  25328.8  159.697
 2.9296  24400.4  156.91
 3.1276  23708.7  154.215
 3.3256  23488.3  153.174
 3.5236  25555.8  159.583
 3.7216  23249.4  153.473
 3.9196  22843.7  151.36
 4.1176  22664.2  150.523
 4.3156  24043.7  155.228
 4.5136  26655  162.397
 4.7116  27605.9  166.418
 4.9096  26940.9  163.833
 5.1076  26392.6  162.72
 5.3056  26886.8  164
 5.5036  26858.3  163.785
 5.7016  27237.5  164.907
 5.8996  27858.8  165.986
 6.0976  28607.3  169.636
 6.2956  29115.6  170.494
 6.4936  29716.8  171.414
 6.6916  29994.9  173.224
 6.8896  31071.4  176.166
 7.0876  32078.9  179.731
 7.2856  31876.4  178.216
 7.4836  32350.5  178.864
 7.6816  33223.7  181.802
 7.8796  34675  185.761
 8.0776  36709.4  192.119
 8.2756  38384.9  195.059
 8.4736  38737.6  195.744
 8.6716  38370.4  195.439
 8.8696  38317.7  195.783
 9.0676  37650.8  193.422
 9.2656  36576.7  191.344
 9.4636  36087.2  188.47
 9.6616  35273.9  187.12
 9.8596  33899.2  182.816
 10.0576  32267.9  179.046
 10.2556  30888.5  175.611
 10.4536  31085.6  175.763
 10.6516  30930.9  175.526
 10.8496  28701.1  168.533
 11.0476  28084.6  166.725
 11.2456  28217.5  167.669
 11.4436  28194.8  166.75
 11.6416  26691.6  162.61
 11.8396  25442.4  158.95
 12.0376  25280.2  158.106
 12.2356  25173.6  158.164
 12.4336  24755  156.387
 12.6316  24485.6  155.784
 12.8296  24918  156.805
 13.0276  25425.2  158.582
 13.2256  25096.2  157.911
 13.4236  25179.4  157.942
 13.6216  24999  157.378
 13.8196  25209.9  157.821
 14.0176  24486.3  155.841
 14.2156  24061.7  153.504
 14.4136  23016.6  151.522
 14.6116  22328.6  148.44
 14.8096  22021.6  147.422
 15.0076  20739.9  146.872
 15.2056  20336  141.274
 15.4036  19353.8  138.653
 15.6016  19012.7  136.504
 15.7996  18603.6  135.32
 15.9976  17704.5  134.95
 16.1956  17208.6  130.902
 16.3936  16928.3  129.001
 16.5916  16777.6  129.066
 16.7896  16857  129.429
 16.9876  16713.2  130.341
 17.1856  16416.8  127.516
 17.3836  15804.7  125.006
 17.5816  15497.1  124.279
 17.7796  15501.8  124.228
 17.9776  15267.1  124.116
 18.1756  15662.3  124.385
 18.3736  15481.6  124.183
 18.5716  14962.1  121.829
 18.7696  14967.4  121.414
 18.9676  14587.1  119.659
 19.1656  14525.3  119.999
 19.3636  14401.8  119.674
 19.5616  14349.4  119.631
 19.7596  14561.1  119.885
 19.9576  15052.1  121.96
 20.1556  14288.8  119.366
 20.3536  13931.6  117.229
 20.5516  13737.9  116.867
 20.7496  13349.4  115.138
 20.9476  13500  115.522
 21.1456  13646.8  116.499
 21.3436  13329.9  115.083
 21.5416  13168.7  114.39
 21.7396  13068.9  113.798
 21.9376  13041  113.458
 22.1356  13172.5  114.128
 22.3336  12986.5  113.636
 22.5316  12987.2  113.738
 22.7296  12824.1  112.38
 22.9276  12870.4  113.259
 23.1256  13198.1  114.174
 23.3236  12801.5  112.972
 23.5216  12849.8  112.846
 23.7196  12635.9  111.855
 23.9176  12475.5  110.869
 24.1156  12549.8  111.701
 24.3136  12121  110.545
 24.5116  12119.6  110.057
 24.7096  11689.9  107.909
 24.9076  11706.4  108.008
 25.1056  11328.7  106.72
 25.3036  11256.8  105.906
 25.5016  11288.2  106.092
 25.6996  11419.5  106.284
 25.8976  11333.3  106.314
 26.0956  11232.9  105.885
 26.2936  11281  105.733
 26.4916  11315.8  105.775
 26.6896  10953  104.371
 26.8876  10839.3  103.667
 27.0856  10842.5  103.757
 27.2836  10601  102.473
 27.4816  10556.2  102.193
 27.6796  10516  102.379
 27.8776  10429.5  101.804
 28.0756  10520.3  102.547
 28.2736  10286  100.978
 28.4716  10146.2  100.337
 28.6696  10138.6  100.144
 28.8676  9994.29  99.7809
 29.0656  9984.14  99.7064
 29.2636  9947.11  99.3031
 29.4616  9872.84  99.1444
 29.6596  9937.99  99.0308
 29.8576  9813.09  99.1014
 30.0556  9901.5  99.4297
 30.2536  9779.23  98.5951
 30.4516  9810.26  98.3895
 30.6496  9754.25  97.8318
 30.8476  9620.63  97.6086
 31.0456  9435.8  96.6146
 31.2436  9536.1  96.3819
 31.4416  9305.55  95.3779
 31.6396  9377.96  95.7954
 31.8376  9377.48  95.336
 32.0356  9498.2  96.5249
 32.2336  9175.25  94.2538
 32.4316  9258.22  95.1061
 32.6296  9261.4  94.9603
 32.8276  9384.06  95.3466
 33.0256  9200.66  94.4973
 33.2236  9151.64  94.3876
 33.4216  9158.75  94.1259
 33.6196  9144.39  94.3419
 33.8176  8987.14  93.6961
 34.0156  9008.49  93.4189
 34.2136  9008.82  93.451
 34.4116  8858.94  92.8401
 34.6096  8788  92.3353
 34.8076  8738.95  92.477
 35.0056  8807.56  92.5397
 35.2036  8671.25  92.01
 35.4016  8700.86  92.118
 35.5996  8620.31  91.7177
 35.7976  8663.46  92.2293
 35.9956  8560.12  91.3106
 36.1936  8562.79  91.2002
 36.3916  8496.37  91.0207
 36.5896  8506.61  92.0507
 36.7876  8512.36  91.5057
 36.9856  8339.44  90.5899
 37.1836  8499.26  90.5482
 37.3816  8538.03  91.1318
 37.5796  8261.98  91.3642
 37.7776  8133.57  89.0145
 37.9756  8215.51  89.332
 38.1736  8402.52  90.5614
 38.3716  8242.87  89.9802
 38.5696  8257.37  90.4373
 38.7676  8002.73  88.5101
 38.9656  8132.54  88.8589
 39.1636  8108  88.9896
 39.3616  8151.22  89.1624
 39.5596  7986.63  89.1322
 39.7576  8026.6  88.7131
 39.9556  8107.47  88.8009
 40.1536  8158.73  89.2892
 40.3516  8221.42  89.6381
 40.5496  8183.21  89.6948
 40.7476  8144.97  89.4928
 40.9456  8231.31  89.7047
 41.1436  8138.73  88.9152
 41.3416  8091.58  89.0091
 41.5396  8119.42  88.9619
 41.7376  8050.35  88.8427
 41.9356  7991.37  88.3825
 42.1336  8049.53  88.8435
 42.3316  8006.47  88.8195
 42.5296  8055.92  88.5991
 42.7276  7960.77  88.3155
 42.9256  7985.6  88.317
 43.1236  7853.4  87.6959
 43.3216  7941.1  87.9347
 43.5196  7838.85  87.422
 43.7176  7923.03  88.295
 43.9156  7710.79  87.0264
 44.1136  7698.63  86.511
 44.3116  7861.8  87.4444
 44.5096  7740.14  87.0668
 44.7076  7664.31  86.5723
 44.9056  7668.43  86.4515
 45.1036  7620.47  85.8073
 45.3016  7696.46  86.7406
 45.4996  7475.94  85.4276
 45.6976  7403.14  85.1954
 45.8956  7575.17  85.9585
 46.0936  7533.89  85.7235
 46.2916  7462.39  85.3028
 46.4896  7560.46  85.8901
 46.6876  7436.99  85.9096
 46.8856  7489.22  85.4744
 47.0836  7326.37  84.7796
 47.2816  7270.58  84.3431
 47.4796  7300.72  84.6287
 47.6776  7166.83  84.7939
 47.8756  7194.74  84.1293
 48.0736  7256.56  84.9515
 48.2716  7092.65  83.8072
 48.4696  7121.32  83.5618
 48.6676  7175.87  84.4692
 48.8656  7239.02  84.5751
 49.0636  7071.44  83.5277
 49.2616  6899.42  82.5554
 49.4596  7084.82  83.204
 49.6576  7033.45  83.1317
 49.8556  6956.49  82.6971
 50.0536  6865.41  82.6013
 50.2516  7000.75  83.5429
 50.4496  6851.84  82.3
 50.6476  6882.91  82.17
 50.8456  6953.36  82.6782
 51.0436  6794.77  82.1895
 51.2416  6879.01  82.3749
 51.4396  6676.88  81.542
 51.6376  6666.02  81.2902
 51.8356  6723.89  81.2776
 52.0336  6552.28  80.7247
 52.2316  6648.96  81.6856
 52.4296  6759.03  82.0581
 52.6276  6650.12  81.5122
 52.8256  6785.98  81.8642
 53.0236  6474.9  80.5933
 53.2216  6478.13  80.6488
 53.4196  6480.25  80.584
 53.6176  6399.29  80.556
 53.8156  6508.87  80.9084
 54.0136  6471.3  80.8842
 54.2116  6413.81  80.1679
 54.4096  6398.19  80.1207
 54.6076  6342.79  80.1305
 54.8056  6364.94  80.0554
 55.0036  6403.77  80.6942
 55.2016  6338.02  79.8192
 55.3996  6325.33  79.7176
 55.5976  6363.13  80.145
 55.7956  6321.9  79.6954
 55.9936  6271.72  79.5053
 56.1916  6349.23  80.0241
 56.3896  6342.85  79.9773
 56.5876  6285.1  80.1659
 56.7856  6221.23  79.24
 56.9836  6205.09  78.9107
 57.1816  6286.72  79.8069
 57.3796  6298.71  79.6874
 57.5776  6281.16  79.5064
 57.7756  6189.8  79.5647
 57.9736  6182.53  79.1913
 58.1716  6247.64  79.8617
 58.3696  6237.9  79.5411
 58.5676  6262.37  79.1658
 58.7656  6349.63  80.4131
 58.9636  6247.96  79.8002
 59.1616  6349.83  80.5757
 59.3596  6369.04  79.9664
 59.5576  6482.93  80.7369
 59.7556  6367.54  80.4448
 59.9536  6249.61  79.5935
 60.1516  6304.73  80.8113
 60.1996  0.0000000E+00  0.0000000E+00

File: 17_Da_f00134.xye
# /beamlines/bl04/projects/cycle2025-II/20250340211-lsimonelli/DATA/IS17_D/17_Da_f00134.xye : mythproc.py merge -s 0.006 -l 0.5 -f /beamlines/bl04/inhouse/ff/FlatField/ff_20Nov2024rod8mm60s_17keV.raw -b True -c true -o xye /beamlines/bl04/projects/cycle2025-II/20250340211-lsimonelli/DATA/IS17_D/17_Da_00134.dat
# IsMon = [6750472, 6748823, 6750051]  IsPos = [-1.4999, -2.4884, -3.4988]
# Wave = 0.4962  CalPath /beamlines/bl04/projects/cycle2025-II/20250340211-lsimonelli/DATA/Align/Si_Pos1_25keV_f00001.cal
# Date = 2025-09-25_06:54:14 Dt = 4.8000  Bin = 0.0060  <imon> = 6749782 +/- 700 (Min/Max) 6748823 / 6750472
# icurr 249.2384  mocoIn 1.7006E-05  mocoOut 0.7975  i15 7.06599e+06  imon 6.74978e+06  i7 7.0000  iEMpd_timer 4.8000  iEMpd_1 3.2871E-08  iEMpd_2 7.9143E-08  iEMpd_3 1.7827E-08  iEMpd_4 4.7940E-08  iEMhp_timer 4.8000  iEMhp_1 4.8700E-06  iEMhp_2 -2.5750E-08  iEMhp_3 -2.5176E-08  iEMhp_4 -2.1035E-08
#      9776
 1.7416  69336.1  263.38
 1.9396  45621.3  213.912
 2.1376  32393.3  180.252
 2.3356  28907.7  169.921
 2.5336  26793.8  164.166
 2.7316  25028  158.781
 2.9296  24003.9  155.666
 3.1276  23473.9  153.488
 3.3256  23330.9  152.696
 3.5236  25132  158.289
 3.7216  22908.3  152.344
 3.9196  22528.4  150.309
 4.1176  22374.3  149.559
 4.3156  23601.1  153.779
 4.5136  26215  161.059
 4.7116  27084.6  164.835
 4.9096  26568.7  162.694
 5.1076  26004.1  161.527
 5.3056  26450  162.646
 5.5036  26100.1  161.462
 5.7016  26882.6  163.83
 5.8996  27564.4  165.111
 6.0976  28104.2  168.151
 6.2956  28609.7  168.998
 6.4936  29327.9  170.286
 6.6916  29703.3  172.38
 6.8896  30518.1  174.588
 7.0876  31292.7  177.514
 7.2856  31336.9  176.703
 7.4836  31930.8  177.703
 7.6816  32781.5  180.589
 7.8796  34113.4  184.215
 8.0776  36345.2  191.141
 8.2756  38075.7  194.226
 8.4736  38290  194.584
 8.6716  37538.2  193.296
 8.8696  37972.6  194.88
 9.0676  37034.3  191.812
 9.2656  35809.1  189.308
 9.4636  35387.1  186.579
 9.6616  34789.9  185.786
 9.8596  33370  181.427
 10.0576  31457.9  176.826
 10.2556  30463.2  174.436
 10.4536  31007.5  175.583
 10.6516  31260.5  176.507
 10.8496  28322.3  167.409
 11.0476  27748.3  165.732
 11.2456  28006.1  167.046
 11.4436  27820.1  165.635
 11.6416  26430.8  161.813
 11.8396  25029.4  157.664
 12.0376  24751.9  156.429
 12.2356  24748.3  156.828
 12.4336  24554.9  155.746
 12.6316  23992.1  154.219
 12.8296  24550.7  155.645
 13.0276  24844.6  156.752
 13.2256  24527.8  156.119
 13.4236  24735.6  156.54
 13.6216  24573.7  156.042
 13.8196  24878.6  156.775
 14.0176  24170.9  154.819
 14.2156  23555.4  151.879
 14.4136  22526.1  149.896
 14.6116  21998.7  147.344
 14.8096  21660.7  146.194
 15.0076  20239.3  145.117
 15.2056  20003.1  140.094
 15.4036  18969.9  137.243
 15.6016  18776.2  135.629
 15.7996  18177.2  133.726
 15.9976  17516.2  134.213
 16.1956  16979.7  130.016
 16.3936  16656.2  127.947
 16.5916  16565.6  128.231
 16.7896  16430.9  127.766
 16.9876  16411.7  129.168
 17.1856  16108.1  126.336
 17.3836  15608.6  124.26
 17.5816  15159.2  122.945
 17.7796  15043.5  122.403
 17.9776  15037.1  123.173
 18.1756  15484.8  123.668
 18.3736  15311.9  123.505
 18.5716  14755.3  120.988
 18.7696  14699.7  120.33
 18.9676  14409.9  118.939
 19.1656  14215.9  118.694
 19.3636  14188.4  118.786
 19.5616  14037.5  118.318
 19.7596  14334.8  118.963
 19.9576  14688.4  120.479
 20.1556  14024.2  118.249
 20.3536  13675.9  116.148
 20.5516  13489  115.798
 20.7496  13313.9  114.987
 20.9476  13197.9  114.233
 21.1456  13426.9  115.555
 21.3436  13106.1  114.116
 21.5416  12956.8  113.462
 21.7396  12876.7  112.96
 21.9376  12908.4  112.856
 22.1356  12864.9  112.795
 22.3336  12838.9  112.983
 22.5316  12942.1  113.523
 22.7296  12626  111.499
 22.9276  12723.9  112.602
 23.1256  12911  112.892
 23.3236  12659.5  112.338
 23.5216  12545.6  111.495
 23.7196  12478.7  111.145
 23.9176  12331.5  110.241
 24.1156  12383.7  110.949
 24.3136  11952.4  109.798
 24.5116  11830.8  108.766
 24.7096  11827.2  108.565
 24.9076  11403.9  106.625
 25.1056  11048.7  105.417
 25.3036  11314.2  106.183
 25.5016  11246.7  105.898
 25.6996  11189.5  105.21
 25.8976  11143  105.427
 26.0956  11160.2  105.529
 26.2936  11155  105.142
 26.4916  11075.4  104.652
 26.6896  10673.9  103.03
 26.8876  10657.7  102.802
 27.0856  10851.7  103.79
 27.2836  10501.9  101.995
 27.4816  10412.6  101.491
 27.6796  10363.5  101.631
 27.8776  10359.5  101.469
 28.0756  10314.3  101.539
 28.2736  10161.1  100.362
 28.4716  10063.9  99.9298
 28.6696  10080.6  99.8593
 28.8676  9815.94  98.8851
 29.0656  9788.45  98.7264
 29.2636  9784.25  98.4955
 29.4616  9637.67  97.9437
 29.6596  9827.82  98.4653
 29.8576  9553.33  97.7669
 30.0556  9748.49  98.6302
 30.2536  9593.46  97.6436
 30.4516  9591.24  97.2788
 30.6496  9647.77  97.2875
 30.8476  9570.45  97.3444
 31.0456  9477.87  96.825
 31.2436  9347.49  95.4289
 31.4416  9240.54  95.0607
 31.6396  9328.13  95.562
 31.8376  9232.58  94.6159
 32.0356  9268.58  95.3669
 32.2336  9201.86  94.4117
 32.4316  9129.29  94.4467
 32.6296  9085.51  94.0609
 32.8276  9102.87  93.9268
 33.0256  8992.24  93.4269
 33.2236  8962.85  93.4169
 33.4216  9078.64  93.7102
 33.6196  8908.1  93.119
 33.8176  8921.52  93.3471
 34.0156  8914.27  92.9245
 34.2136  8829.49  92.5212
 34.4116  8768.66  92.3561
 34.6096  8643.7  91.5786
 34.8076  8654.55  92.0365
 35.0056  8672.51  91.8224
 35.2036  8578.36  91.5262
 35.4016  8574.33  91.4414
 35.5996  8537.69  91.278
 35.7976  8369.77  90.647
 35.9956  8609.61  91.5826
 36.1936  8485.73  90.7909
 36.3916  8397.31  90.4823
 36.5896  8420.2  91.5817
 36.7876  8431.3  91.0558
 36.9856  8226.14  89.9651
 37.1836  8344.02  89.7065
 37.3816  8358.15  90.1472
 37.5796  8197.75  90.9975
 37.7776  8038.5  88.492
 37.9756  8115.41  88.7971
 38.1736  8304.55  90.0286
 38.3716  8189.23  89.6778
 38.5696  8144.2  89.8165
 38.7676  7954.15  88.2649
 38.9656  7952.49  87.8904
 39.1636  7910.25  87.9086
 39.3616  8003.65  88.3708
 39.5596  7967.09  89.0214
 39.7576  7885.73  87.9374
 39.9556  8022.09  88.3324
 40.1536  8110.67  89.0193
 40.3516  8088.19  88.9122
 40.5496  8019.48  88.7918
 40.7476  8062.86  89.035
 40.9456  8048.04  88.7067
 41.1436  8026.1  88.3004
 41.3416  7956.07  88.2563
 41.5396  7927.88  87.9066
 41.7376  7974.15  88.4264
 41.9356  7963.63  88.2291
 42.1336  7872.4  87.8652
 42.3316  7814.3  87.7435
 42.5296  7823.27  87.3098
 42.7276  7927.21  88.1282
 42.9256  7877.14  87.7171
 43.1236  7832.13  87.5775
 43.3216  7846.56  87.4026
 43.5196  7707.19  86.6912
 43.7176  7694.77  87.0131
 43.9156  7578.82  86.265
 44.1136  7649.02  86.2206
 44.3116  7647.39  86.2196
 44.5096  7563.18  86.0583
 44.7076  7638.83  86.4161
 44.9056  7536.46  85.6974
 45.1036  7540.21  85.3456
 45.3016  7421.03  85.1636
 45.4996  7379.17  84.8644
 45.6976  7297.84  84.5714
 45.8956  7405.63  85.0133
 46.0936  7378.33  84.8532
 46.2916  7321.27  84.5061
 46.4896  7423.14  85.1272
 46.6876  7297.4  85.1165
 46.8856  7245.77  84.0698
 47.0836  7175.05  83.9064
 47.2816  7095.15  83.3232
 47.4796  7151.29  83.7534
 47.6776  7132.9  84.5922
 47.8756  7109.46  83.6219
 48.0736  7071.92  83.862
 48.2716  7007.47  83.3033
 48.4696  7079.85  83.3214
 48.6676  7072.05  83.8501
 48.8656  7011.31  83.2289
 49.0636  7069.09  83.5144
 49.2616  6916.87  82.6541
 49.4596  6933.8  82.3223
 49.6576  6837.06  81.9641
 49.8556  6849.07  82.053
 50.0536  6923.21  82.9368
 50.2516  6906.86  82.9821
 50.4496  6854.96  82.3199
 50.6476  6747.76  81.3641
 50.8456  6868.14  82.1662
 51.0436  6615.49  81.0873
 51.2416  6712.94  81.3568
 51.4396  6633.47  81.2692
 51.6376  6539.5  80.5196
 51.8356  6562.06  80.2932
 52.0336  6482.87  80.299
 52.2316  6447.56  80.4194
 52.4296  6508.44  80.4922
 52.6276  6551.69  80.8742
 52.8256  6483.38  80.008
 53.0236  6433.02  80.3517
 53.2216  6408.24  80.2278
 53.4196  6239.8  79.0956
 53.6176  6328.26  80.1263
 53.8156  6312.44  79.6931
 54.0136  6362.4  80.1922
 54.2116  6335.39  79.6827
 54.4096  6400.48  80.1464
 54.6076  6276.46  79.7113
 54.8056  6267.15  79.4385
 55.0036  6196.76  79.3803
 55.2016  6185.23  78.854
 55.3996  6308.6  79.6075
 55.5976  6171.92  78.9246
 55.7956  6301.97  79.5647
 55.9936  6188.14  78.9809
 56.1916  6301.97  79.7201
 56.3896  6260.78  79.4572
 56.5876  6108.5  79.0289
 56.7856  6200.47  79.1089
 56.9836  6131.77  78.4504
 57.1816  6204.9  79.2945
 57.3796  6205.82  79.0997
 57.5776  6187.93  78.9163
 57.7756  6081.58  78.8676
 57.9736  6110.93  78.7316
 58.1716  6169.23  79.3526
 58.3696  6086.07  78.5611
 58.5676  6180.16  78.6501
 58.7656  6293.78  80.0447
 58.9636  6140.96  79.1019
 59.1616  6166.5  79.3858
 59.3596  6140.98  78.4857
 59.5576  6216.19  79.0222
 59.7556  6196.25  79.319
 59.9536  6355.44  80.2277
 60.1516  6131.78  79.6586
 60.1996  0.0000000E+00  0.0000000E+00