Folder: echemistpy/docs/examples/opeando_xrd/IS17_D/Data/IS17_D (part 105)

File: 17_Db_f00113.xye
# /beamlines/bl04/projects/cycle2025-II/20250340211-lsimonelli/DATA/IS17_D/17_Db_f00113.xye : mythproc.py merge -s 0.006 -l 0.5 -f /beamlines/bl04/inhouse/ff/FlatField/ff_20Nov2024rod8mm60s_17keV.raw -b True -c true -o xye /beamlines/bl04/projects/cycle2025-II/20250340211-lsimonelli/DATA/IS17_D/17_Db_00113.dat
# IsMon = [6754180, 6751744, 6749633]  IsPos = [-1.4999, -2.4884, -3.4988]
# Wave = 0.4962  CalPath /beamlines/bl04/projects/cycle2025-II/20250340211-lsimonelli/DATA/Align/Si_Pos1_25keV_f00001.cal
# Date = 2025-09-25_01:12:08 Dt = 4.8000  Bin = 0.0060  <imon> = 6751852 +/- 1858 (Min/Max) 6749633 / 6754180
# icurr 249.7347  mocoIn 1.7045E-05  mocoOut 0.7996  i15 7.07721e+06  imon 6.75185e+06  i7 4.6667  iEMpd_timer 4.8000  iEMpd_1 3.3711E-08  iEMpd_2 7.7875E-08  iEMpd_3 1.7590E-08  iEMpd_4 4.7672E-08  iEMhp_timer 4.8000  iEMhp_1 4.8791E-06  iEMhp_2 -2.5767E-08  iEMhp_3 -2.4521E-08  iEMhp_4 -2.0730E-08
#      9776
 1.7416  70546.2  265.636
 1.9396  48995.1  221.661
 2.1376  36489  191.283
 2.3356  33399.1  182.623
 2.5336  30571.5  175.336
 2.7316  28348.2  168.976
 2.9296  27251.6  165.836
 3.1276  26722.2  163.74
 3.3256  25940.9  160.993
 3.5236  27154.7  164.509
 3.7216  24819.7  158.563
 3.9196  24067.9  155.341
 4.1176  24101.9  155.228
 4.3156  25070.7  158.499
 4.5136  27362.4  164.539
 4.7116  28308.1  168.513
 4.9096  27615.3  165.859
 5.1076  27416.5  165.84
 5.3056  27320.8  165.286
 5.5036  27281.9  165.078
 5.7016  27624.1  166.07
 5.8996  28145.9  166.854
 6.0976  28968.5  170.686
 6.2956  28915.9  169.897
 6.4936  29897.8  171.933
 6.6916  30311.6  174.122
 6.8896  31114.9  176.263
 7.0876  32031.3  179.592
 7.2856  31808.1  178.003
 7.4836  32350.1  178.853
 7.6816  33287.4  181.949
 7.8796  33967.4  183.825
 8.0776  35424.8  188.72
 8.2756  37135.4  191.839
 8.4736  37751.5  193.225
 8.6716  37115.3  192.208
 8.8696  37915  194.763
 9.0676  36978  191.666
 9.2656  35843.4  189.398
 9.4636  35123.5  185.946
 9.6616  34279.5  184.431
 9.8596  33574.9  181.941
 10.0576  31350.9  176.488
 10.2556  30478.6  174.459
 10.4536  29327.8  170.739
 10.6516  28685.4  169.068
 10.8496  27556.8  165.128
 11.0476  26989.4  163.446
 11.2456  26007.6  160.974
 11.4436  26036.3  160.24
 11.6416  27390.6  164.708
 11.8396  25183.6  158.12
 12.0376  24552.7  155.791
 12.2356  24096.7  154.747
 12.4336  24301.7  154.948
 12.6316  24286.2  155.157
 12.8296  23944.7  153.681
 13.0276  24485.1  155.618
 13.2256  24835  157.088
 13.4236  24590.6  156.087
 13.6216  25087.4  157.643
 13.8196  27004.6  163.003
 14.0176  24079.9  154.537
 14.2156  23696.4  152.319
 14.4136  22529.3  149.905
 14.6116  22215.1  148.053
 14.8096  21443.4  145.443
 15.0076  20437.7  145.887
 15.2056  19782  139.324
 15.4036  18548.7  135.738
 15.6016  18091.9  133.148
 15.7996  17849.1  132.528
 15.9976  17528.5  134.241
 16.1956  17189.1  130.796
 16.3936  16769.4  128.356
 16.5916  16646.4  128.548
 16.7896  16395.2  127.616
 16.9876  16550.9  129.693
 17.1856  16270.2  126.952
 17.3836  15894.3  125.388
 17.5816  15325.2  123.591
 17.7796  14959.1  122.046
 17.9776  14675.6  121.664
 18.1756  14742.6  120.696
 18.3736  14484.6  120.115
 18.5716  14295.8  119.084
 18.7696  14130.2  117.955
 18.9676  14316.1  118.527
 19.1656  13881.5  117.312
 19.3636  13880.9  117.488
 19.5616  13815.2  117.382
 19.7596  14070.1  117.852
 19.9576  14172.2  118.329
 20.1556  15032.2  122.421
 20.3536  13976.7  117.417
 20.5516  13406.2  115.441
 20.7496  13280.4  114.83
 20.9476  13192.6  114.205
 21.1456  13024.5  113.8
 21.3436  12928.5  113.336
 21.5416  12792.8  112.752
 21.7396  12761.6  112.458
 21.9376  12735.1  112.117
 22.1356  12746.1  112.282
 22.3336  12617.8  112.01
 22.5316  12425.9  111.251
 22.7296  12452.3  110.737
 22.9276  12382.8  111.093
 23.1256  12479  111.002
 23.3236  13067.3  114.159
 23.5216  12918.5  113.138
 23.7196  12664.1  111.971
 23.9176  12688.2  111.817
 24.1156  12366.3  110.854
 24.3136  12002.7  110.013
 24.5116  12148  110.179
 24.7096  11809.8  108.462
 24.9076  11695.7  107.959
 25.1056  11376.9  106.952
 25.3036  11156.2  105.432
 25.5016  11067.7  105.044
 25.6996  11068.3  104.635
 25.8976  11075.8  105.093
 26.0956  10861  104.099
 26.2936  10943.7  104.147
 26.4916  11280.6  105.585
 26.6896  10785.3  103.564
 26.8876  10810.6  103.526
 27.0856  10535.7  102.274
 27.2836  10393.1  101.462
 27.4816  10405.8  101.464
 27.6796  10251.1  101.058
 27.8776  10487.9  102.077
 28.0756  10152.1  100.737
 28.2736  10178.3  100.442
 28.4716  9843.13  98.8196
 28.6696  9988.09  99.3995
 28.8676  9831.95  98.9651
 29.0656  9762.35  98.5919
 29.2636  9771.03  98.4237
 29.4616  9495.59  97.2252
 29.6596  9573.1  97.1885
 29.8576  9418.08  97.0785
 30.0556  9333  96.5211
 30.2536  9545.1  97.3993
 30.4516  9478.14  96.6923
 30.6496  9698.62  97.5417
 30.8476  9484.99  96.9002
 31.0456  9596.6  97.429
 31.2436  9675.4  97.0765
 31.4416  9315.21  95.4366
 31.6396  9501.4  96.4246
 31.8376  9459.62  95.7502
 32.0356  9405.8  96.0324
 32.2336  9368.99  95.2542
 32.4316  8919.75  93.3535
 32.6296  8928.41  93.236
 32.8276  8976.57  93.2753
 33.0256  8915.79  93.0209
 33.2236  8994.39  93.5689
 33.4216  8906.53  92.7979
 33.6196  8873.03  92.9225
 33.8176  8812.58  92.7816
 34.0156  8856.16  92.6293
 34.2136  8808.7  92.3983
 34.4116  8671.24  91.8486
 34.6096  8651.53  91.6136
 34.8076  8551.45  91.5039
 35.0056  8595.16  91.3999
 35.2036  8878.52  93.1253
 35.4016  8506.4  91.0678
 35.5996  8547.33  91.322
 35.7976  8366.22  90.6262
 35.9956  8634.56  91.7135
 36.1936  8508.66  90.8916
 36.3916  8386.54  90.4312
 36.5896  8237.67  90.6041
 36.7876  8087.84  89.1837
 36.9856  8016.52  88.8066
 37.1836  8010.49  87.9007
 37.3816  8009.44  88.2586
 37.5796  8095.76  90.4392
 37.7776  8182.79  89.281
 37.9756  8140.76  88.9365
 38.1736  8321.18  90.1181
 38.3716  8143.08  89.4125
 38.5696  8055.98  89.3218
 38.7676  7939.84  88.1737
 38.9656  8127.75  88.8353
 39.1636  8109.25  89.005
 39.3616  7999.57  88.3438
 39.5596  7853.79  88.3874
 39.7576  7949.18  88.2957
 39.9556  7995.49  88.1923
 40.1536  8050.64  88.6934
 40.3516  8035.75  88.6118
 40.5496  8040.76  88.9057
 40.7476  8105.62  89.2623
 40.9456  8082.24  88.8882
 41.1436  8144.71  88.9488
 41.3416  7927.53  88.0994
 41.5396  7980.77  88.1925
 41.7376  7893.05  87.9754
 41.9356  7914.63  87.9341
 42.1336  8048.94  88.8238
 42.3316  7845.01  87.9118
 42.5296  7815.66  87.26
 42.7276  7816.69  87.5082
 42.9256  7966.47  88.218
 43.1236  7771.61  87.2369
 43.3216  7923.69  87.8254
 43.5196  7750.62  86.9236
 43.7176  7811.21  87.6583
 43.9156  7599.3  86.389
 44.1136  7498.78  85.3754
 44.3116  7631.69  86.1426
 44.5096  7527.89  85.8632
 44.7076  7665.53  86.5713
 44.9056  7854.73  87.4917
 45.1036  7785.8  86.7251
 45.3016  7615.89  86.2768
 45.4996  7549.73  85.8378
 45.6976  7530.89  85.9179
 45.8956  7533.21  85.7341
 46.0936  7652.87  86.4081
 46.2916  7625.17  86.2306
 46.4896  7552.74  85.8522
 46.6876  7543.28  86.5289
 46.8856  7465.92  85.3412
 47.0836  7512.65  85.8573
 47.2816  7436.03  85.2988
 47.4796  7501.14  85.7785
 47.6776  7479.81  86.6213
 47.8756  7435.64  85.5227
 48.0736  7438.08  85.9996
 48.2716  7317.65  85.1236
 48.4696  7502.35  85.767
 48.6676  7378.01  85.6546
 48.8656  7467.71  85.8866
 49.0636  7466.02  85.828
 49.2616  7245.41  84.5935
 49.4596  7334.56  84.6616
 49.6576  7365.47  85.0696
 49.8556  7334.12  84.9119
 50.0536  7289.79  85.1097
 50.2516  7321.13  85.427
 50.4496  7259.56  84.7137
 50.6476  7362.6  84.9893
 50.8456  7303.31  84.7328
 51.0436  7103.16  84.025
 51.2416  6988.08  83.0121
 51.4396  6928.07  83.0617
 51.6376  7021.89  83.4368
 51.8356  7128.74  83.6822
 52.0336  6873.51  82.6776
 52.2316  7179.84  84.8615
 52.4296  6988.72  83.4389
 52.6276  6899.04  83.0049
 52.8256  7072.61  83.5937
 53.0236  7132.93  84.5992
 53.2216  7061.31  84.2053
 53.4196  7000.7  83.7267
 53.6176  6998.6  84.2497
 53.8156  6798.2  82.7059
 54.0136  6630.76  81.8595
 54.2116  6842.85  82.7765
 54.4096  6611.84  81.439
 54.6076  6702.24  82.3538
 54.8056  6622.95  81.6355
 55.0036  6546.6  81.5606
 55.2016  6751.95  82.3331
 55.3996  6473.02  80.6214
 55.5976  6541.4  81.2284
 55.7956  6513.76  80.8805
 55.9936  6547.09  81.2143
 56.1916  6506.81  80.9879
 56.3896  6309.64  79.7395
 56.5876  6336.46  80.4694
 56.7856  6341.64  79.9817
 56.9836  6377.12  79.9781
 57.1816  6489.86  81.0611
 57.3796  6326.45  79.8548
 57.5776  6354.99  79.932
 57.7756  6273.07  80.0712
 57.9736  6267.69  79.7063
 58.1716  6092.54  78.8546
 58.3696  6028.81  78.1951
 58.5676  6047.29  77.7927
 58.7656  6070.74  78.622
 58.9636  5999.83  78.1854
 59.1616  6060.88  78.7201
 59.3596  6081.34  78.118
 59.5576  5946.64  77.3041
 59.7556  5931.56  77.6206
 59.9536  5928.14  77.498
 60.1516  5949.42  78.4796
 60.1996  0.0000000E+00  0.0000000E+00

File: 17_Db_f00114.xye
# /beamlines/bl04/projects/cycle2025-II/20250340211-lsimonelli/DATA/IS17_D/17_Db_f00114.xye : mythproc.py merge -s 0.006 -l 0.5 -f /beamlines/bl04/inhouse/ff/FlatField/ff_20Nov2024rod8mm60s_17keV.raw -b True -c true -o xye /beamlines/bl04/projects/cycle2025-II/20250340211-lsimonelli/DATA/IS17_D/17_Db_00114.dat
# IsMon = [6757909, 6757251, 6761023]  IsPos = [-1.4999, -2.4884, -3.4988]
# Wave = 0.4962  CalPath /beamlines/bl04/projects/cycle2025-II/20250340211-lsimonelli/DATA/Align/Si_Pos1_25keV_f00001.cal
# Date = 2025-09-25_01:28:42 Dt = 4.8000  Bin = 0.0060  <imon> = 6758728 +/- 1645 (Min/Max) 6757251 / 6761023
# icurr 250.5578  mocoIn 1.7093E-05  mocoOut 0.8018  i15 7.08564e+06  imon 6.75873e+06  i7 4.0000  iEMpd_timer 4.8000  iEMpd_1 3.5480E-08  iEMpd_2 8.0300E-08  iEMpd_3 1.7347E-08  iEMpd_4 4.8255E-08  iEMhp_timer 4.8000  iEMhp_1 4.8953E-06  iEMhp_2 -2.4502E-08  iEMhp_3 -2.3176E-08  iEMhp_4 -2.0473E-08
#      9776
 1.7416  70796  266.168
 1.9396  49199.8  222.178
 2.1376  36628.8  191.696
 2.3356  33046.2  181.698
 2.5336  30725.9  175.819
 2.7316  28486.6  169.415
 2.9296  27337.3  166.116
 3.1276  26774.9  163.931
 3.3256  25803.7  160.59
 3.5236  27003.2  164.067
 3.7216  24804.5  158.514
 3.9196  24031.3  155.224
 4.1176  24157.6  155.411
 4.3156  24845.9  157.777
 4.5136  27310.3  164.39
 4.7116  28272.1  168.405
 4.9096  27599.1  165.813
 5.1076  27425.9  165.884
 5.3056  27288.3  165.176
 5.5036  27187.6  164.792
 5.7016  27502.9  165.703
 5.8996  28255.4  167.179
 6.0976  28958.8  170.662
 6.2956  29114.9  170.472
 6.4936  29981.3  172.169
 6.6916  30211.6  173.834
 6.8896  31047.5  176.078
 7.0876  32051.8  179.651
 7.2856  32001.5  178.546
 7.4836  32398.8  178.99
 7.6816  33425.5  182.319
 7.8796  34073.3  184.098
 8.0776  35662.2  189.328
 8.2756  37012.8  191.483
 8.4736  37848.7  193.45
 8.6716  37111.4  192.196
 8.8696  38123.7  195.288
 9.0676  37136.3  192.065
 9.2656  35937.3  189.629
 9.4636  35129.3  185.935
 9.6616  34414.6  184.771
 9.8596  33891.9  182.828
 10.0576  31496.3  176.928
 10.2556  30394  174.25
 10.4536  29637.1  171.658
 10.6516  28712.4  169.171
 10.8496  27633.2  165.361
 11.0476  26943.4  163.298
 11.2456  26102.7  161.273
 11.4436  26345.8  161.184
 11.6416  27304.3  164.434
 11.8396  25129.7  157.965
 12.0376  24725.2  156.325
 12.2356  24169.3  154.982
 12.4336  24102  154.308
 12.6316  24217.2  154.942
 12.8296  24019.6  153.925
 13.0276  24564.2  155.865
 13.2256  24929.9  157.382
 13.4236  24792.7  156.721
 13.6216  25071.7  157.603
 13.8196  27022.8  163.103
 14.0176  24122.3  154.664
 14.2156  23942.2  153.102
 14.4136  22444.7  149.63
 14.6116  22388.5  148.627
 14.8096  21533.6  145.74
 15.0076  20524.9  146.213
 15.2056  19575.6  138.578
 15.4036  18890.6  136.968
 15.6016  18322.4  133.978
 15.7996  17897.6  132.683
 15.9976  17632.3  134.594
 16.1956  17242.7  130.982
 16.3936  16690.8  128.057
 16.5916  16695.2  128.726
 16.7896  16629.6  128.529
 16.9876  16435.7  129.251
 17.1856  16260.3  126.937
 17.3836  15871.6  125.319
 17.5816  15308.2  123.556
 17.7796  15193.3  123.012
 17.9776  14847.9  122.376
 18.1756  14775  120.826
 18.3736  14522.4  120.268
 18.5716  14242.2  118.857
 18.7696  14270.1  118.545
 18.9676  14295.5  118.451
 19.1656  13956.6  117.618
 19.3636  13983.2  117.928
 19.5616  13768.1  117.186
 19.7596  14190.1  118.365
 19.9576  14317.7  118.924
 20.1556  15079.9  122.613
 20.3536  14015.1  117.574
 20.5516  13662  116.529
 20.7496  13275.5  114.811
 20.9476  13237.4  114.406
 21.1456  13035.1  113.846
 21.3436  13054.7  113.89
 21.5416  13055.1  113.902
 21.7396  12770.2  112.493
 21.9376  12665.1  111.8
 22.1356  12814.4  112.585
 22.3336  12577.3  111.826
 22.5316  12596.3  111.997
 22.7296  12524  111.045
 22.9276  12252  110.492
 23.1256  12529.6  111.21
 23.3236  12884.2  113.351
 23.5216  12739.6  112.335
 23.7196  12640.7  111.862
 23.9176  12594.3  111.41
 24.1156  12318.8  110.648
 24.3136  12089.1  110.431
 24.5116  12217.5  110.525
 24.7096  11816.2  108.51
 24.9076  11648.2  107.769
 25.1056  11295.6  106.587
 25.3036  11162  105.46
 25.5016  11127.4  105.332
 25.6996  10982.9  104.226
 25.8976  11093.4  105.181
 26.0956  11048.1  104.981
 26.2936  11001.2  104.425
 26.4916  11190.6  105.174
 26.6896  10790  103.573
 26.8876  10717.6  103.087
 27.0856  10588.4  102.511
 27.2836  10383.2  101.416
 27.4816  10328.1  101.087
 27.6796  10395.9  101.785
 27.8776  10574.4  102.497
 28.0756  10060.5  100.276
 28.2736  10025.9  99.6868
 28.4716  10014.9  99.6851
 28.6696  9986.52  99.3851
 28.8676  9760.69  98.6098
 29.0656  9769.73  98.6263
 29.2636  9775.76  98.4542
 29.4616  9425  96.8509
 29.6596  9449.9  96.5491
 29.8576  9211.35  95.9919
 30.0556  9282.51  96.2411
 30.2536  9351.95  96.3995
 30.4516  9543.32  97.0134
 30.6496  9662.32  97.3476
 30.8476  9762.47  98.3099
 31.0456  9761.7  98.2652
 31.2436  9486.84  96.139
 31.4416  9426.82  96.0245
 31.6396  9480.63  96.3408
 31.8376  9309.39  94.9764
 32.0356  9421.22  96.1367
 32.2336  9445.79  95.6582
 32.4316  9099.67  94.2949
 32.6296  8886.03  93.0178
 32.8276  9067.34  93.7433
 33.0256  9010.35  93.5094
 33.2236  8928.47  93.2296
 33.4216  8995.9  93.2704
 33.6196  8966.96  93.4178
 33.8176  8866.1  93.0631
 34.0156  8821.01  92.4448
 34.2136  8804.6  92.3838
 34.4116  8554.23  91.2249
 34.6096  8625.35  91.4761
 34.8076  8564.16  91.5662
 35.0056  8581.62  91.3248
 35.2036  8749.68  92.4488
 35.4016  8409  90.5407
 35.5996  8479.71  90.96
 35.7976  8451.38  91.0827
 35.9956  8709.86  92.1102
 36.1936  8464.68  90.6537
 36.3916  8405.36  90.5291
 36.5896  8305.18  90.9811
 36.7876  8192.85  89.7523
 36.9856  8048.13  88.9833
 37.1836  7989.84  87.7771
 37.3816  8171.83  89.1319
 37.5796  8167.72  90.8383
 37.7776  8154.94  89.1347
 37.9756  8277.16  89.6852
 38.1736  8272.89  89.8468
 38.3716  8072.14  89.0188
 38.5696  8080.34  89.4339
 38.7676  7947.28  88.2261
 38.9656  8120.15  88.8121
 39.1636  8106.64  89.0142
 39.3616  8045.9  88.6102
 39.5596  7831.64  88.2464
 39.7576  7865.08  87.8296
 39.9556  7944.03  87.9079
 40.1536  8090.45  88.9054
 40.3516  8075.59  88.8401
 40.5496  7991.25  88.6394
 40.7476  8084.84  89.1464
 40.9456  8093.05  88.9496
 41.1436  8160.15  89.037
 41.3416  7944.61  88.1882
 41.5396  7865.9  87.5597
 41.7376  7879.15  87.8928
 41.9356  7819.93  87.4232
 42.1336  8071.83  88.9568
 42.3316  7917.92  88.3144
 42.5296  7857.43  87.4954
 42.7276  7879.83  87.8594
 42.9256  7974.11  88.2547
 43.1236  7886.85  87.8756
 43.3216  7894.02  87.6565
 43.5196  7825.75  87.3378
 43.7176  7748.66  87.3034
 43.9156  7604.81  86.415
 44.1136  7604.85  85.9645
 44.3116  7654.57  86.2571
 44.5096  7579.6  86.1411
 44.7076  7550.34  85.9075
 44.9056  7753.84  86.9236
 45.1036  7634.16  85.8686
 45.3016  7703.91  86.7718
 45.4996  7555.64  85.8709
 45.6976  7464.46  85.5236
 45.8956  7620.2  86.2408
 46.0936  7690.64  86.6361
 46.2916  7622.2  86.2307
 46.4896  7625.98  86.2818
 46.6876  7433.01  85.9067
 46.8856  7531.52  85.7154
 47.0836  7494.31  85.7557
 47.2816  7411.72  85.1642
 47.4796  7552.41  86.0745
 47.6776  7488.03  86.6696
 47.8756  7529.85  86.0682
 48.0736  7471.23  86.1929
 48.2716  7411.31  85.6603
 48.4696  7601.83  86.335
 48.6676  7496.46  86.341
 48.8656  7445.83  85.7582
 49.0636  7628.79  86.7618
 49.2616  7339.13  85.1282
 49.4596  7471.65  85.4446
 49.6576  7427.66  85.4247
 49.8556  7457.61  85.6232
 50.0536  7372.48  85.5925
 50.2516  7346.56  85.565
 50.4496  7313.66  85.0353
 50.6476  7390.25  85.1476
 50.8456  7424.19  85.428
 51.0436  7146.77  84.2735
 51.2416  7099.63  83.6609
 51.4396  7052.11  83.7934
 51.6376  7028.14  83.4744
 51.8356  6986.38  82.8387
 52.0336  7016.6  83.528
 52.2316  7038.09  84.0275
 52.4296  6946.01  83.1686
 52.6276  6912.32  83.0752
 52.8256  7118.86  83.8561
 53.0236  7186.82  84.9293
 53.2216  7011.05  83.9288
 53.4196  6952.35  83.4791
 53.6176  7029.83  84.4494
 53.8156  6940.66  83.579
 54.0136  6741.19  82.5352
 54.2116  6837.13  82.7407
 54.4096  6693.62  81.9489
 54.6076  6706.27  82.3721
 54.8056  6609.01  81.5546
 55.0036  6601.02  81.92
 55.2016  6681.45  81.9248
 55.3996  6480.46  80.6674
 55.5976  6485.54  80.8924
 55.7956  6481.87  80.6673
 55.9936  6615.35  81.6348
 56.1916  6526.39  81.1122
 56.3896  6418.41  80.4123
 56.5876  6301.94  80.2432
 56.7856  6348.1  80.0411
 56.9836  6332.54  79.6979
 57.1816  6498.57  81.1115
 57.3796  6302.35  79.7066
 57.5776  6359.87  79.9304
 57.7756  6197.52  79.5915
 57.9736  6228.58  79.4601
 58.1716  6187.5  79.4635
 58.3696  6035.71  78.2412
 58.5676  6105.2  78.1577
 58.7656  6065.47  78.5796
 58.9636  6004.46  78.2051
 59.1616  6029  78.5053
 59.3596  6106.25  78.2518
 59.5576  5997.4  77.6074
 59.7556  5818.32  76.8504
 59.9536  6042.62  78.2166
 60.1516  5971.52  78.599
 60.1996  0.0000000E+00  0.0000000E+00