Folder: echemistpy/docs/examples/opeando_xrd/IS17_D/Data/IS17_D (part 92)

File: 17_Db_f00084.xye
# /beamlines/bl04/projects/cycle2025-II/20250340211-lsimonelli/DATA/IS17_D/17_Db_f00084.xye : mythproc.py merge -s 0.006 -l 0.5 -f /beamlines/bl04/inhouse/ff/FlatField/ff_20Nov2024rod8mm60s_17keV.raw -b True -c true -o xye /beamlines/bl04/projects/cycle2025-II/20250340211-lsimonelli/DATA/IS17_D/17_Db_00084.dat
# IsMon = [6769236, 6766163, 6769146]  IsPos = [-1.4999, -2.4884, -3.4989]
# Wave = 0.4962  CalPath /beamlines/bl04/projects/cycle2025-II/20250340211-lsimonelli/DATA/Align/Si_Pos1_25keV_f00001.cal
# Date = 2025-09-24_17:05:50 Dt = 4.8000  Bin = 0.0060  <imon> = 6768182 +/- 1428 (Min/Max) 6766163 / 6769236
# icurr 251.1322  mocoIn 1.7119E-05  mocoOut 0.8031  i15 7.08849e+06  imon 6.76818e+06  i7 5.0000  iEMpd_timer 4.8000  iEMpd_1 3.3472E-08  iEMpd_2 7.7642E-08  iEMpd_3 1.6286E-08  iEMpd_4 4.6730E-08  iEMhp_timer 4.8000  iEMhp_1 4.9044E-06  iEMhp_2 -2.5794E-08  iEMhp_3 -2.4142E-08  iEMhp_4 -2.0985E-08
#      9776
 1.7416  70031.9  264.691
 1.9396  48248.8  219.985
 2.1376  35281.9  188.113
 2.3356  31496.6  177.362
 2.5336  29712.6  172.872
 2.7316  27015.6  164.977
 2.9296  25578.7  160.68
 3.1276  25375.4  159.582
 3.3256  24467.6  156.373
 3.5236  26190.5  161.588
 3.7216  23881.5  155.54
 3.9196  23454.5  153.342
 4.1176  23507.1  153.291
 4.3156  24317.8  156.094
 4.5136  26840.7  162.968
 4.7116  27918.3  167.34
 4.9096  27238  164.725
 5.1076  27035  164.692
 5.3056  27246.3  165.059
 5.5036  26940.6  164.046
 5.7016  27187  164.75
 5.8996  27900.5  166.123
 6.0976  28704.9  169.91
 6.2956  28879.4  169.788
 6.4936  29403.9  170.506
 6.6916  29757.8  172.523
 6.8896  30388.4  174.192
 7.0876  31323.2  177.595
 7.2856  31371.5  176.785
 7.4836  31924.1  177.669
 7.6816  32408  179.537
 7.8796  33292.3  181.984
 8.0776  35075.4  187.777
 8.2756  36576.6  190.366
 8.4736  36719.4  190.552
 8.6716  36438.1  190.452
 8.8696  37217.7  192.951
 9.0676  36429.2  190.223
 9.2656  35306.8  187.965
 9.4636  34382.6  183.951
 9.6616  33657.3  182.726
 9.8596  33031.1  180.489
 10.0576  31001.2  175.528
 10.2556  30407.5  174.284
 10.4536  30146.9  173.117
 10.6516  29736.7  172.159
 10.8496  27731.4  165.654
 11.0476  26867.5  163.073
 11.2456  26506.3  162.519
 11.4436  26369.8  161.261
 11.6416  25789.1  159.817
 11.8396  24700.6  156.601
 12.0376  24155.4  154.517
 12.2356  23917.6  154.174
 12.4336  23936  153.777
 12.6316  23716  153.325
 12.8296  23759.2  153.081
 13.0276  24021.7  154.141
 13.2256  24307.3  155.412
 13.4236  24071.4  154.43
 13.6216  24494.1  155.768
 13.8196  26806  162.416
 14.0176  23448.6  152.399
 14.2156  23223.3  150.79
 14.4136  22176.8  148.732
 14.6116  21797.1  146.66
 14.8096  21043.3  144.069
 15.0076  20148.9  144.85
 15.2056  19142.9  137.045
 15.4036  18321.3  134.897
 15.6016  18055.9  133.009
 15.7996  17518.9  131.282
 15.9976  17358.8  134.145
 16.1956  16910.4  129.709
 16.3936  16533.1  127.453
 16.5916  16264.7  127.056
 16.7896  16346.4  127.426
 16.9876  16281.6  128.636
 17.1856  15900.5  125.523
 17.3836  15287  122.984
 17.5816  15188.7  123.068
 17.7796  15074.2  122.528
 17.9776  14934.5  122.73
 18.1756  15061.5  121.996
 18.3736  14896.9  121.822
 18.5716  14579  120.254
 18.7696  14340.3  118.834
 18.9676  14241.6  118.215
 19.1656  13771.5  116.84
 19.3636  13832.3  117.296
 19.5616  13743.4  117.078
 19.7596  14036.5  117.714
 19.9576  14460.5  119.533
 20.1556  13844.7  117.48
 20.3536  13551.9  115.625
 20.5516  13185.3  114.478
 20.7496  13082.5  113.964
 20.9476  13050.1  113.586
 21.1456  12921.5  113.36
 21.3436  12857.5  113.029
 21.5416  12697.8  112.333
 21.7396  12616.4  111.816
 21.9376  12576  111.41
 22.1356  12617.8  111.717
 22.3336  12367.2  110.895
 22.5316  12440.1  111.305
 22.7296  12303.8  110.069
 22.9276  12134.2  109.967
 23.1256  12417.9  110.72
 23.3236  12657.8  112.349
 23.5216  12489.9  111.236
 23.7196  12323.6  110.448
 23.9176  12546.9  111.194
 24.1156  12281.5  110.458
 24.3136  11931.1  109.698
 24.5116  11929.7  109.208
 24.7096  11693.2  107.933
 24.9076  11445.7  106.816
 25.1056  11169  105.98
 25.3036  11012.8  104.758
 25.5016  10936.3  104.423
 25.6996  10979.6  104.216
 25.8976  11068.4  105.063
 26.0956  10791.4  103.751
 26.2936  10823.9  103.578
 26.4916  10832.3  103.471
 26.6896  10724.4  103.267
 26.8876  10626.7  102.644
 27.0856  10350.3  101.364
 27.2836  10335  101.183
 27.4816  10343.4  101.16
 27.6796  10108.5  100.365
 27.8776  10437.5  101.834
 28.0756  10109.2  100.519
 28.2736  10165.3  100.373
 28.4716  9951.61  99.367
 28.6696  9831.73  98.6138
 28.8676  9771  98.6617
 29.0656  9518.39  97.3533
 29.2636  9796.78  98.5553
 29.4616  9229.9  95.8506
 29.6596  9336.74  95.9728
 29.8576  9210.4  95.9986
 30.0556  9324.21  96.4636
 30.2536  9376.88  96.5356
 30.4516  9483.44  96.708
 30.6496  9515.27  96.6115
 30.8476  9377.86  96.3429
 31.0456  9413.72  96.486
 31.2436  9404.41  95.7046
 31.4416  9395.6  95.8583
 31.6396  9261.55  95.2157
 31.8376  9285.61  94.8518
 32.0356  9148  94.7282
 32.2336  9269.64  94.7556
 32.4316  8877.24  93.1253
 32.6296  8840.82  92.7763
 32.8276  8945.41  93.1134
 33.0256  8728.43  92.0339
 33.2236  8918.55  93.1835
 33.4216  8752.58  91.9977
 33.6196  8762.23  92.3318
 33.8176  8729.62  92.3369
 34.0156  8678.4  91.6935
 34.2136  8759.32  92.1395
 34.4116  8423.03  90.5248
 34.6096  8578.26  91.2291
 34.8076  8425.85  90.83
 35.0056  8429.16  90.5197
 35.2036  8749.68  92.4423
 35.4016  8300.44  89.9605
 35.5996  8400.43  90.534
 35.7976  8319.29  90.3623
 35.9956  8471.25  90.8421
 36.1936  8354.75  90.0638
 36.3916  8266.53  89.7813
 36.5896  8207.62  90.4435
 36.7876  7916.64  88.2353
 36.9856  7945.49  88.4207
 37.1836  8036.8  88.0392
 37.3816  7961.89  87.9856
 37.5796  8071.25  90.304
 37.7776  8027.56  88.4294
 37.9756  8059.85  88.4936
 38.1736  8066.55  88.7206
 38.3716  8000.06  88.6141
 38.5696  7882.56  88.3464
 38.7676  7762.38  87.1955
 38.9656  8013.19  88.2253
 39.1636  7982.98  88.3224
 39.3616  7818.45  87.3481
 39.5596  7749.42  87.7934
 39.7576  7823.41  87.5951
 39.9556  7980.07  88.1054
 40.1536  8010.93  88.4639
 40.3516  7838.2  87.5196
 40.5496  7880.22  88.019
 40.7476  7882.82  88.0296
 40.9456  7986.47  88.3589
 41.1436  8058.09  88.4776
 41.3416  7755.16  87.134
 41.5396  7786.24  87.1109
 41.7376  7814.17  87.5301
 41.9356  7839.88  87.5352
 42.1336  7931.36  88.174
 42.3316  7696.2  87.0703
 42.5296  7885.69  87.6506
 42.7276  7787  87.341
 42.9256  7714.98  86.8084
 43.1236  7840.19  87.6109
 43.3216  7802  87.149
 43.5196  7688.71  86.5733
 43.7176  7700.26  87.04
 43.9156  7577.94  86.2601
 44.1136  7348.87  84.5137
 44.3116  7459.56  85.159
 44.5096  7489.36  85.6386
 44.7076  7330.76  84.6559
 44.9056  7661.17  86.4008
 45.1036  7540.24  85.335
 45.3016  7619.92  86.2864
 45.4996  7369.46  84.7994
 45.6976  7386.29  85.0791
 45.8956  7572.07  85.9562
 46.0936  7653.15  86.4239
 46.2916  7445.31  85.2108
 46.4896  7494.61  85.5331
 46.6876  7377.84  85.5864
 46.8856  7396.29  84.9383
 47.0836  7414.89  85.2981
 47.2816  7342.83  84.7688
 47.4796  7341.42  84.863
 47.6776  7239.14  85.2148
 47.8756  7356.39  85.0662
 48.0736  7338.55  85.4226
 48.2716  7276.2  84.8779
 48.4696  7438.06  85.4028
 48.6676  7321.12  85.3299
 48.8656  7369.46  85.3222
 49.0636  7443.02  85.6983
 49.2616  7126.54  83.8957
 49.4596  7349.46  84.7482
 49.6576  7292.2  84.6518
 49.8556  7380.67  85.1801
 50.0536  7179.11  84.4626
 50.2516  7261.67  85.0731
 50.4496  7161.37  84.1449
 50.6476  7199.66  84.0437
 50.8456  7234.9  84.3227
 51.0436  7018.85  83.5228
 51.2416  6905.08  82.5139
 51.4396  6861.89  82.6607
 51.6376  6878.48  82.5858
 51.8356  6980.68  82.8136
 52.0336  6889.1  82.7631
 52.2316  6859.07  82.9365
 52.4296  6799.45  82.2873
 52.6276  6824.03  82.5432
 52.8256  7024.45  83.2914
 53.0236  7011.35  83.8855
 53.2216  7022.64  83.9885
 53.4196  6790.75  82.4946
 53.6176  6862.89  83.4434
 53.8156  6783.27  82.6206
 54.0136  6671.73  82.1099
 54.2116  6679.83  81.7802
 54.4096  6622.9  81.5134
 54.6076  6487.08  81.0173
 54.8056  6443.74  80.5017
 55.0036  6456.08  80.9988
 55.2016  6512.12  80.9105
 55.3996  6347.29  79.8314
 55.5976  6385  80.266
 55.7956  6437.12  80.4092
 55.9936  6509.34  80.9678
 56.1916  6330.28  79.8885
 56.3896  6218.73  79.1594
 56.5876  6304.01  80.2542
 56.7856  6290.93  79.6722
 56.9836  6318.76  79.6198
 57.1816  6317.31  79.8832
 57.3796  6199.04  79.0518
 57.5776  6308.54  79.637
 57.7756  6121.69  79.1079
 57.9736  6132.54  78.8532
 58.1716  6108.12  78.9511
 58.3696  5965.86  77.7904
 58.5676  6001.39  77.4967
 58.7656  5865.63  77.2779
 58.9636  5924.12  77.6887
 59.1616  5903.14  77.6878
 59.3596  5944.07  77.2123
 59.5576  5778.62  76.1863
 59.7556  5958.3  77.7771
 59.9536  6148.46  78.9064
 60.1516  5848.07  77.7899
 60.1996  5841.53  80.8402

File: 17_Db_f00085.xye
# /beamlines/bl04/projects/cycle2025-II/20250340211-lsimonelli/DATA/IS17_D/17_Db_f00085.xye : mythproc.py merge -s 0.006 -l 0.5 -f /beamlines/bl04/inhouse/ff/FlatField/ff_20Nov2024rod8mm60s_17keV.raw -b True -c true -o xye /beamlines/bl04/projects/cycle2025-II/20250340211-lsimonelli/DATA/IS17_D/17_Db_00085.dat
# IsMon = [6779408, 6779188, 6777252]  IsPos = [-1.4999, -2.4884, -3.4988]
# Wave = 0.4962  CalPath /beamlines/bl04/projects/cycle2025-II/20250340211-lsimonelli/DATA/Align/Si_Pos1_25keV_f00001.cal
# Date = 2025-09-24_17:22:26 Dt = 4.8000  Bin = 0.0060  <imon> = 6778616 +/- 969 (Min/Max) 6777252 / 6779408
# icurr 252.0537  mocoIn 1.7189E-05  mocoOut 0.8069  i15 7.10182e+06  imon 6.77862e+06  i7 5.0000  iEMpd_timer 4.8000  iEMpd_1 3.3486E-08  iEMpd_2 7.8215E-08  iEMpd_3 1.4722E-08  iEMpd_4 4.6918E-08  iEMhp_timer 4.8000  iEMhp_1 4.9238E-06  iEMhp_2 -2.5417E-08  iEMhp_3 -2.3826E-08  iEMhp_4 -2.2305E-08
#      9776
 1.7416  70621.2  265.807
 1.9396  48584.1  220.752
 2.1376  35443.1  188.546
 2.3356  31722  177.999
 2.5336  29243.6  171.505
 2.7316  27132.1  165.317
 2.9296  25742.2  161.189
 3.1276  25422.7  159.71
 3.3256  24658.2  156.963
 3.5236  26198.8  161.594
 3.7216  24180.2  156.504
 3.9196  23489.4  153.461
 4.1176  23753.4  154.099
 4.3156  24529.7  156.781
 4.5136  26846.5  162.978
 4.7116  27991  167.564
 4.9096  27366.1  165.112
 5.1076  27245.2  165.324
 5.3056  27251.7  165.074
 5.5036  27121.2  164.587
 5.7016  27424.9  165.465
 5.8996  28105.5  166.735
 6.0976  28830.8  170.283
 6.2956  28960.9  170.023
 6.4936  29869.2  171.85
 6.6916  29951.4  173.082
 6.8896  30654.5  174.941
 7.0876  31538.8  178.203
 7.2856  31461.4  177.033
 7.4836  31927  177.684
 7.6816  32502.3  179.789
 7.8796  33338.3  182.115
 8.0776  34804.8  187.05
 8.2756  36410.4  189.947
 8.4736  37283.5  192.01
 8.6716  36473  190.528
 8.8696  37382.6  193.396
 9.0676  36446.3  190.283
 9.2656  35410.6  188.251
 9.4636  34453.4  184.163
 9.6616  33780  183.08
 9.8596  33237.3  181.025
 10.0576  31007.6  175.524
 10.2556  30265.4  173.86
 10.4536  29894.3  172.389
 10.6516  29540.9  171.575
 10.8496  27840.7  165.982
 11.0476  26991.8  163.451
 11.2456  26342.6  162.006
 11.4436  26535.3  161.764
 11.6416  25873.3  160.081
 11.8396  24785.7  156.873
 12.0376  24194.5  154.645
 12.2356  23845.7  153.93
 12.4336  24109.8  154.334
 12.6316  23837.8  153.72
 12.8296  23744.5  153.035
 13.0276  24119.1  154.451
 13.2256  24279  155.316
 13.4236  24229.4  154.935
 13.6216  24744.4  156.563
 13.8196  26479.3  161.43
 14.0176  23584.8  152.935
 14.2156  23501.2  151.69
 14.4136  22249.1  148.977
 14.6116  21773.3  146.578
 14.8096  21089  144.232
 15.0076  20237.8  145.179
 15.2056  19228.8  137.355
 15.4036  18521  135.633
 15.6016  17970.2  132.691
 15.7996  17581.5  131.523
 15.9976  17340.9  133.488
 16.1956  16973.1  129.976
 16.3936  16530  127.451
 16.5916  16495.2  127.958
 16.7896  16453.6  127.855
 16.9876  16264.9  128.575
 17.1856  15889.9  125.468
 17.3836  15625.5  124.324
 17.5816  15329  123.618
 17.7796  15158.3  122.861
 17.9776  14851.8  122.401
 18.1756  15143.2  122.326
 18.3736  14833.2  121.553
 18.5716  14377.5  119.417
 18.7696  14378.7  118.999
 18.9676  14341.8  118.634
 19.1656  13862  117.227
 19.3636  13847.3  117.351
 19.5616  13806.4  117.349
 19.7596  14166.4  118.262
 19.9576  14416.6  119.354
 20.1556  13918.5  117.793
 20.3536  13491.5  115.366
 20.5516  13265.2  114.833
 20.7496  13072.5  113.925
 20.9476  13151.8  114.024
 21.1456  13064.9  113.979
 21.3436  12923.2  113.313
 21.5416  12843.9  112.976
 21.7396  12732.8  112.33
 21.9376  12574.8  111.409
 22.1356  12597.4  111.624
 22.3336  12284.3  110.514
 22.5316  12248.3  110.446
 22.7296  12385.7  110.431
 22.9276  12239.4  110.442
 23.1256  12328.8  110.33
 23.3236  12595.5  112.081
 23.5216  12722.5  112.284
 23.7196  12465.4  111.087
 23.9176  12562.1  111.262
 24.1156  12165.8  109.955
 24.3136  11946  109.756
 24.5116  11971.3  109.386
 24.7096  11679.3  107.859
 24.9076  11497.9  107.053
 25.1056  11219.9  106.211
 25.3036  10967.9  104.534
 25.5016  11027.3  104.855
 25.6996  10958.8  104.117
 25.8976  10955.6  104.532
 26.0956  10898.2  104.273
 26.2936  10925.6  104.056
 26.4916  10976.8  104.139
 26.6896  10710  103.191
 26.8876  10760.7  103.295
 27.0856  10487.7  102.033
 27.2836  10338.1  101.194
 27.4816  10385.8  101.366
 27.6796  10281  101.218
 27.8776  10460.4  101.949
 28.0756  9932.54  99.6377
 28.2736  10058.4  99.8459
 28.4716  9920.24  99.2085
 28.6696  9842.51  98.6684
 28.8676  9768.84  98.6497
 29.0656  9622.1  97.8798
 29.2636  9675.28  97.9431
 29.4616  9475.25  97.1131
 29.6596  9419.6  96.3981
 29.8576  9240.6  96.1541
 30.0556  9161.07  95.6214
 30.2536  9413.59  96.7213
 30.4516  9496.65  96.7763
 30.6496  9346.66  95.7515
 30.8476  9397.13  96.4559
 31.0456  9552.23  97.2038
 31.2436  9384.52  95.6156
 31.4416  9285.79  95.2913
 31.6396  9396.9  95.9064
 31.8376  9392.37  95.3963
 32.0356  9301.38  95.5065
 32.2336  9293.33  94.8712
 32.4316  8950.07  93.5117
 32.6296  8880.25  92.9792
 32.8276  8934.88  93.0595
 33.0256  8763  92.2125
 33.2236  8957.79  93.3829
 33.4216  8871.37  92.6243
 33.6196  8718.45  92.1092
 33.8176  8805.18  92.7321
 34.0156  8678.17  91.6948
 34.2136  8727.22  91.9743
 34.4116  8515.65  91.0191
 34.6096  8527.08  90.9484
 34.8076  8580.55  91.6568
 35.0056  8481.61  90.8013
 35.2036  8672.61  92.0418
 35.4016  8384.31  90.4094
 35.5996  8399.43  90.5242
 35.7976  8322.59  90.386
 35.9956  8547.46  91.2426
 36.1936  8443.72  90.5364
 36.3916  8277.89  89.8428
 36.5896  8301.01  90.949
 36.7876  8128.61  89.4057
 36.9856  7910.38  88.2234
 37.1836  7978.03  87.7159
 37.3816  8019.4  88.3079
 37.5796  7986.67  89.823
 37.7776  8060.56  88.6165
 37.9756  8088.28  88.6557
 38.1736  8179.78  89.3476
 38.3716  8125.19  89.3173
 38.5696  7894.44  88.3953
 38.7676  8040.38  88.7362
 38.9656  7988.41  88.0659
 39.1636  7891.09  87.8051
 39.3616  8032.4  88.5225
 39.5596  7661.9  87.2873
 39.7576  7838.56  87.6806
 39.9556  7992.3  88.1742
 40.1536  7942.97  88.0937
 40.3516  7935.24  88.0669
 40.5496  7886.03  88.0472
 40.7476  7814.3  87.6425
 40.9456  7992.49  88.3943
 41.1436  8035.56  88.3478
 41.3416  7792.4  87.3418
 41.5396  7803.33  87.213
 41.7376  7919.42  88.1242
 41.9356  7779.9  87.1883
 42.1336  8057.81  88.8743
 42.3316  7793.47  87.6211
 42.5296  7846.35  87.4265
 42.7276  7801.51  87.4274
 42.9256  7828.62  87.4456
 43.1236  7754.95  87.1389
 43.3216  7808.12  87.1851
 43.5196  7760.53  86.9796
 43.7176  7684.41  86.9528
 43.9156  7508.9  85.8692
 44.1136  7461.35  85.1571
 44.3116  7582.39  85.8604
 44.5096  7389.71  85.0667
 44.7076  7535.99  85.833
 44.9056  7646.35  86.3255
 45.1036  7593.25  85.6465
 45.3016  7578.67  86.0704
 45.4996  7568.05  85.9462
 45.6976  7406.18  85.2029
 45.8956  7562.54  85.8979
 46.0936  7618.91  86.2205
 46.2916  7581.29  85.9894
 46.4896  7622.91  86.2534
 46.6876  7455.2  86.0164
 46.8856  7387.84  84.8937
 47.0836  7416.79  85.3091
 47.2816  7395.1  85.0643
 47.4796  7377.41  85.0761
 47.6776  7268.96  85.3857
 47.8756  7368.26  85.1345
 48.0736  7365.35  85.5792
 48.2716  7276.14  84.8734
 48.4696  7502.77  85.7687
 48.6676  7319.59  85.313
 48.8656  7444.56  85.7585
 49.0636  7408.55  85.4973
 49.2616  7269.69  84.7285
 49.4596  7270.81  84.2943
 49.6576  7336.34  84.9078
 49.8556  7308.84  84.765
 50.0536  7226.94  84.7389
 50.2516  7236.31  84.9283
 50.4496  7259.19  84.7136
 50.6476  7344.99  84.8868
 50.8456  7258.5  84.4738
 51.0436  7053.16  83.7216
 51.2416  6939.62  82.723
 51.4396  6871.74  82.7178
 51.6376  7016.15  83.3985
 51.8356  7028.61  83.0941
 52.0336  7023.05  83.5718
 52.2316  7081.88  84.2874
 52.4296  6880.06  82.7854
 52.6276  6870.94  82.8382
 52.8256  6965.19  82.9585
 53.0236  6924.19  83.3492
 53.2216  6873.13  83.0847
 53.4196  6792.26  82.5028
 53.6176  6895.29  83.6298
 53.8156  6858.55  83.0746
 54.0136  6556.67  81.3926
 54.2116  6806.51  82.5671
 54.4096  6632.57  81.5664
 54.6076  6496.06  81.0658
 54.8056  6513.78  80.9473
 55.0036  6484.86  81.1596
 55.2016  6649.26  81.7227
 55.3996  6408.51  80.2202
 55.5976  6509.89  81.0392
 55.7956  6446.23  80.4425
 55.9936  6454.41  80.6439
 56.1916  6428.24  80.511
 56.3896  6216.96  79.1473
 56.5876  6233.63  79.8181
 56.7856  6242.88  79.3683
 56.9836  6347.06  79.786
 57.1816  6366.64  80.2796
 57.3796  6172.59  78.8718
 57.5776  6233.26  79.1446
 57.7756  6178.94  79.4775
 57.9736  6119.26  78.7428
 58.1716  6071.79  78.721
 58.3696  5938.04  77.6028
 58.5676  6041.2  77.7523
 58.7656  5957.24  77.8797
 58.9636  5863.57  77.2903
 59.1616  5823.59  77.1602
 59.3596  5988.81  77.5163
 59.5576  5813.46  76.4287
 59.7556  5793.88  76.7096
 59.9536  6039.97  78.2206
 60.1516  5885.84  78.0542
 60.1996  0.0000000E+00  0.0000000E+00