Folder: echemistpy/docs/examples/opeando_xrd/IS17_D/Data/IS17_D (part 73)

File: 17_Db_f00033.xye
# /beamlines/bl04/projects/cycle2025-II/20250340211-lsimonelli/DATA/IS17_D/17_Db_f00033.xye : mythproc.py merge -s 0.006 -l 0.5 -f /beamlines/bl04/inhouse/ff/FlatField/ff_20Nov2024rod8mm60s_17keV.raw -b True -c true -o xye /beamlines/bl04/projects/cycle2025-II/20250340211-lsimonelli/DATA/IS17_D/17_Db_00033.dat
# IsMon = [6747240, 6746103, 6745527]  IsPos = [-1.5000, -2.4885, -3.4986]
# Wave = 0.4962  CalPath /beamlines/bl04/projects/cycle2025-II/20250340211-lsimonelli/DATA/Align/Si_Pos1_25keV_f00001.cal
# Date = 2025-09-24_02:54:18 Dt = 4.8000  Bin = 0.0060  <imon> = 6746290 +/- 712 (Min/Max) 6745527 / 6747240
# icurr 249.2606  mocoIn 1.7011E-05  mocoOut 0.7981  i15 7.06742e+06  imon 6.74629e+06  i7 6.3333  iEMpd_timer 4.8000  iEMpd_1 3.5379E-08  iEMpd_2 7.6921E-08  iEMpd_3 1.5769E-08  iEMpd_4 4.7264E-08  iEMhp_timer 4.8000  iEMhp_1 4.8722E-06  iEMhp_2 -2.5873E-08  iEMhp_3 -2.3561E-08  iEMhp_4 -2.1874E-08
#      9776
 1.7416  70829.4  266.195
 1.9396  48145.7  219.749
 2.1376  34973.5  187.29
 2.3356  31384.9  177.048
 2.5336  29157.4  171.251
 2.7316  26698.2  163.993
 2.9296  25668.9  160.96
 3.1276  25083  158.645
 3.3256  24347.3  155.974
 3.5236  26072.5  161.355
 3.7216  23635.3  154.726
 3.9196  23058.7  152.038
 4.1176  23129.4  152.062
 4.3156  24140.3  155.523
 4.5136  26302.1  161.322
 4.7116  27563.3  166.282
 4.9096  26792.2  163.37
 5.1076  26601.5  163.361
 5.3056  26482.6  162.614
 5.5036  26038.7  161.29
 5.7016  26473.9  162.569
 5.8996  27060  163.602
 6.0976  28023.4  167.883
 6.2956  28067.2  167.384
 6.4936  28684.4  168.414
 6.6916  29036.1  170.42
 6.8896  29674.1  172.134
 7.0876  31175.3  177.075
 7.2856  30519.9  174.366
 7.4836  30928.8  174.881
 7.6816  31720.1  177.61
 7.8796  32303.7  179.263
 8.0776  33622  183.845
 8.2756  35228.7  186.832
 8.4736  35961.9  188.578
 8.6716  34828.1  186.185
 8.8696  35580.2  188.671
 9.0676  34839.4  186.037
 9.2656  33795.3  183.901
 9.4636  32774.5  179.614
 9.6616  31903  177.921
 9.8596  31803.5  177.082
 10.0576  29429.8  170.998
 10.2556  28780.5  169.544
 10.4536  27798  166.234
 10.6516  27256.6  164.809
 10.8496  26116  160.763
 11.0476  25286.9  158.153
 11.2456  24539.5  156.367
 11.4436  24998.8  157.008
 11.6416  25232  158.08
 11.8396  23689.3  153.365
 12.0376  23093.6  151.073
 12.2356  22948.3  151.044
 12.4336  22762.5  149.961
 12.6316  22737.9  150.122
 12.8296  22747.7  149.776
 13.0276  23094.5  151.133
 13.2256  23438.6  152.609
 13.4236  23177.4  151.528
 13.6216  23601.5  152.906
 13.8196  25631.5  158.808
 14.0176  22693.5  150.016
 14.2156  22136.5  147.216
 14.4136  21387.6  146.06
 14.6116  20906.5  143.625
 14.8096  20320.7  141.585
 15.0076  19387.5  142.094
 15.2056  18433.7  134.482
 15.4036  17769.1  132.844
 15.6016  17212.7  129.866
 15.7996  16817.2  128.632
 15.9976  16586.7  130.563
 16.1956  16207.9  127.004
 16.3936  15804.2  124.618
 16.5916  15658.8  124.676
 16.7896  15650.5  124.693
 16.9876  15442.2  125.274
 17.1856  15332.2  123.245
 17.3836  14942.5  121.582
 17.5816  14545.1  120.424
 17.7796  14350.3  119.543
 17.9776  13958.1  118.657
 18.1756  14072.5  117.923
 18.3736  13881.4  117.589
 18.5716  13572.7  116.031
 18.7696  13679.4  116.062
 18.9676  13633  115.657
 19.1656  13182.7  114.313
 19.3636  13083.3  114.07
 19.5616  13144.1  114.5
 19.7596  13463.7  115.288
 19.9576  13547.9  115.69
 20.1556  13901.6  117.714
 20.3536  13184.4  114.041
 20.5516  12779.9  112.707
 20.7496  12647.2  111.973
 20.9476  12600.5  111.613
 21.1456  12477.6  111.397
 21.3436  12401  110.996
 21.5416  12182.5  110.028
 21.7396  12085.5  109.437
 21.9376  11888.1  108.322
 22.1356  12097.5  109.415
 22.3336  11698.4  107.831
 22.5316  11832.8  108.556
 22.7296  11844.3  107.988
 22.9276  11747.8  108.201
 23.1256  11931.4  108.539
 23.3236  12252.7  110.544
 23.5216  11930.3  108.72
 23.7196  12142.4  109.848
 23.9176  11963.6  108.581
 24.1156  11791.1  108.251
 24.3136  11522.7  107.796
 24.5116  11513.1  107.286
 24.7096  11176.6  105.512
 24.9076  11082.6  105.1
 25.1056  10752.7  103.72
 25.3036  10591  102.716
 25.5016  10448.3  102.069
 25.6996  10524.7  102.038
 25.8976  10652.1  103.069
 26.0956  10389.3  101.807
 26.2936  10401.7  101.538
 26.4916  10768.8  103.184
 26.6896  10233.2  100.871
 26.8876  10066  99.8931
 27.0856  10015  99.6636
 27.2836  9898.93  99.1813
 27.4816  9896.86  98.9443
 27.6796  9751.81  98.5624
 27.8776  10011.2  99.7346
 28.0756  9621.2  98.0645
 28.2736  9659.48  97.8445
 28.4716  9471.05  96.9366
 28.6696  9451.44  96.692
 28.8676  9425.42  96.8987
 29.0656  9237.74  95.9079
 29.2636  9251.15  95.6919
 29.4616  8971.09  94.4969
 29.6596  9044.03  94.4603
 29.8576  8833.79  94.0127
 30.0556  8829.35  93.8716
 30.2536  8965.04  94.3878
 30.4516  9102.27  94.7533
 30.6496  9119.13  94.5834
 30.8476  9045.48  94.6248
 31.0456  9137.59  95.0766
 31.2436  8985.11  93.5548
 31.4416  9082.75  94.2462
 31.6396  8926.38  93.4633
 31.8376  8935.97  93.0637
 32.0356  8819.04  93.0043
 32.2336  8827.17  92.4658
 32.4316  8525.28  91.2621
 32.6296  8572.43  91.2885
 32.8276  8642.15  91.5125
 33.0256  8414.53  90.3587
 33.2236  8564.02  91.3079
 33.4216  8410.46  90.1858
 33.6196  8500.54  90.9422
 33.8176  8377.71  90.4591
 34.0156  8269.19  89.5056
 34.2136  8404.56  90.2593
 34.4116  8123.01  88.896
 34.6096  8228.03  89.3414
 34.8076  8143.87  89.2965
 35.0056  8189.51  89.2221
 35.2036  8265.7  89.8581
 35.4016  8034.7  88.5004
 35.5996  8042.68  88.5774
 35.7976  8056.19  88.9176
 35.9956  8140.09  89.0425
 36.1936  8118.24  88.7742
 36.3916  7876.34  87.6364
 36.5896  7998.15  89.7396
 36.7876  7674.05  86.8721
 36.9856  7656.61  86.7953
 37.1836  7749.49  86.4509
 37.3816  7601.31  85.9745
 37.5796  7738.76  88.4202
 37.7776  7906.59  87.7672
 37.9756  7896.57  87.5977
 38.1736  7778.7  87.1298
 38.3716  7807.11  87.5459
 38.5696  7721.19  87.4404
 38.7676  7591.41  86.2242
 38.9656  7690.53  86.4228
 39.1636  7641.58  86.3833
 39.3616  7563.98  85.9092
 39.5596  7380.12  85.6715
 39.7576  7518.78  85.8694
 39.9556  7585.03  85.8987
 40.1536  7576.22  86.0393
 40.3516  7570.38  86.0945
 40.5496  7660.92  86.5647
 40.7476  7644.91  86.6888
 40.9456  7694.99  86.7318
 41.1436  7748.66  86.7618
 41.3416  7447.58  85.3872
 41.5396  7506.06  85.5299
 41.7376  7520.29  85.8634
 41.9356  7511.41  85.6741
 42.1336  7658.93  86.6529
 42.3316  7455.83  85.6992
 42.5296  7538.83  85.7038
 42.7276  7549.45  85.9962
 42.9256  7509.75  85.6491
 43.1236  7352.55  84.8352
 43.3216  7483.2  85.4554
 43.5196  7401.2  84.9378
 43.7176  7445.35  85.5703
 43.9156  7200.12  84.0898
 44.1136  7227.69  83.812
 44.3116  7293.56  84.2096
 44.5096  7271.81  84.3859
 44.7076  7159.56  83.6625
 44.9056  7364.85  84.7189
 45.1036  7251.95  83.6924
 45.3016  7355.1  84.785
 45.4996  7382.17  84.8835
 45.6976  7016.86  82.927
 45.8956  7230.81  83.9944
 46.0936  7397.34  84.7174
 46.2916  7319.24  84.4926
 46.4896  7235.06  84.0279
 46.6876  7111.59  84.0049
 46.8856  7179.06  83.8042
 47.0836  7074.93  83.3196
 47.2816  7069.68  83.17
 47.4796  7132.99  83.648
 47.6776  6973.8  83.647
 47.8756  7125.44  83.7221
 48.0736  7134.12  84.2105
 48.2716  6975.24  83.1009
 48.4696  7195.87  83.995
 48.6676  7134.03  84.2278
 48.8656  7153.79  84.0688
 49.0636  7201.73  84.2926
 49.2616  6951.03  82.8528
 49.4596  7010.71  82.7737
 49.6576  6925.8  82.4908
 49.8556  7050.63  83.2546
 50.0536  6946.73  83.0866
 50.2516  6917.02  83.0116
 50.4496  6961.12  82.9587
 50.6476  6944.33  82.5407
 50.8456  6978.5  82.8308
 51.0436  6734.88  81.8165
 51.2416  6787.48  81.812
 51.4396  6590.94  81.0111
 51.6376  6676.52  81.3601
 51.8356  6693.61  81.0923
 52.0336  6776.3  82.0955
 52.2316  6699.02  81.9772
 52.4296  6700.43  81.6958
 52.6276  6555.53  80.9031
 52.8256  6707.82  81.4076
 53.0236  6813.15  82.6844
 53.2216  6621.09  81.5201
 53.4196  6681.75  81.8127
 53.6176  6656.27  82.1655
 53.8156  6684.05  82.0114
 54.0136  6261.25  79.5294
 54.2116  6516.48  80.7893
 54.4096  6403.79  80.1559
 54.6076  6359.82  80.2238
 54.8056  6321.63  79.7377
 55.0036  6357.76  80.2483
 55.2016  6347.17  79.7423
 55.3996  6138.1  78.4975
 55.5976  6260.67  79.4676
 55.7956  6162.35  78.6615
 55.9936  6388.47  80.2078
 56.1916  6186.03  78.983
 56.3896  6051.44  78.0932
 56.5876  6022.56  78.4358
 56.7856  6032.85  78.0228
 56.9836  6087.92  78.1431
 57.1816  6238.24  79.474
 57.3796  5889.48  77.0116
 57.5776  6092.37  78.2513
 57.7756  5872.51  77.4815
 57.9736  5875.65  77.1688
 58.1716  5917.78  77.7119
 58.3696  5622.47  75.5169
 58.5676  5718.02  75.6426
 58.7656  5690.56  76.1168
 58.9636  5654.63  75.9001
 59.1616  5824.12  77.1604
 59.3596  5669.92  75.4204
 59.5576  5737.29  75.923
 59.7556  5647.6  75.7317
 59.9536  5766.89  76.4285
 60.1516  5672.71  76.6246
 60.1996  0.0000000E+00  0.0000000E+00

File: 17_Db_f00034.xye
# /beamlines/bl04/projects/cycle2025-II/20250340211-lsimonelli/DATA/IS17_D/17_Db_f00034.xye : mythproc.py merge -s 0.006 -l 0.5 -f /beamlines/bl04/inhouse/ff/FlatField/ff_20Nov2024rod8mm60s_17keV.raw -b True -c true -o xye /beamlines/bl04/projects/cycle2025-II/20250340211-lsimonelli/DATA/IS17_D/17_Db_00034.dat
# IsMon = [6752166, 6752235, 6754310]  IsPos = [-1.5000, -2.4885, -3.4988]
# Wave = 0.4962  CalPath /beamlines/bl04/projects/cycle2025-II/20250340211-lsimonelli/DATA/Align/Si_Pos1_25keV_f00001.cal
# Date = 2025-09-24_03:10:53 Dt = 4.8000  Bin = 0.0060  <imon> = 6752904 +/- 995 (Min/Max) 6752166 / 6754310
# icurr 249.9147  mocoIn 1.7052E-05  mocoOut 0.8004  i15 7.07116e+06  imon 6.7529e+06  i7 5.3333  iEMpd_timer 4.8000  iEMpd_1 3.5710E-08  iEMpd_2 7.8415E-08  iEMpd_3 1.5135E-08  iEMpd_4 4.6833E-08  iEMhp_timer 4.8000  iEMhp_1 4.8837E-06  iEMhp_2 -2.7472E-08  iEMhp_3 -2.3791E-08  iEMhp_4 -2.2847E-08
#      9776
 1.7416  70466.3  265.545
 1.9396  48457.8  220.499
 2.1376  35281  188.135
 2.3356  31483.9  177.35
 2.5336  28944  170.644
 2.7316  26933.5  164.726
 2.9296  25703.7  161.081
 3.1276  25109.1  158.746
 3.3256  24303.1  155.844
 3.5236  26083.8  161.393
 3.7216  23790.6  155.235
 3.9196  23313.9  152.879
 4.1176  23417.5  153.007
 4.3156  24114.2  155.44
 4.5136  26515.9  161.978
 4.7116  27675.6  166.615
 4.9096  27092.8  164.284
 5.1076  26706.7  163.692
 5.3056  26529.4  162.87
 5.5036  26309.1  162.188
 5.7016  26640.2  163.085
 5.8996  27280.5  164.27
 6.0976  27874.2  167.45
 6.2956  28019.3  167.236
 6.4936  28776.6  168.682
 6.6916  29115  170.645
 6.8896  29659.3  172.086
 7.0876  31201.2  177.159
 7.2856  30636  174.694
 7.4836  30738.8  174.341
 7.6816  31469.8  176.916
 7.8796  32487.9  179.764
 8.0776  33696.2  184.037
 8.2756  35223.7  186.804
 8.4736  35904.3  188.415
 8.6716  34956.4  186.526
 8.8696  35829.2  189.326
 9.0676  34839.3  186.034
 9.2656  33905.2  184.191
 9.4636  32984.2  180.175
 9.6616  32161.8  178.624
 9.8596  31642.5  176.642
 10.0576  29669.6  171.709
 10.2556  28903  169.917
 10.4536  27864.7  166.436
 10.6516  27287.1  164.914
 10.8496  26223.9  161.087
 11.0476  25088.8  157.534
 11.2456  24593.9  156.543
 11.4436  24810.1  156.416
 11.6416  25313.4  158.333
 11.8396  23783.6  153.676
 12.0376  23213.3  151.459
 12.2356  22851  150.72
 12.4336  23075.7  150.982
 12.6316  22754.5  150.185
 12.8296  22789.6  149.928
 13.0276  23023.1  150.898
 13.2256  23357.6  152.346
 13.4236  23276.4  151.855
 13.6216  23677.7  153.16
 13.8196  25828.4  159.416
 14.0176  22707.8  150.061
 14.2156  22367.4  147.982
 14.4136  21282.2  145.7
 14.6116  20985.8  143.897
 14.8096  20362.2  141.721
 15.0076  19549.2  142.692
 15.2056  18483.4  134.66
 15.4036  17631.8  132.325
 15.6016  17117.8  129.5
 15.7996  16849.7  128.744
 15.9976  16648.6  130.81
 16.1956  16415.6  127.797
 16.3936  16014.7  125.429
 16.5916  15736.3  124.972
 16.7896  15758  125.12
 16.9876  15491  125.482
 17.1856  15364.7  123.386
 17.3836  15045.1  122.007
 17.5816  14360  119.664
 17.7796  14358.1  119.591
 17.9776  13966.4  118.696
 18.1756  14100.1  118.038
 18.3736  13811.3  117.288
 18.5716  13670.7  116.455
 18.7696  13635.3  115.877
 18.9676  13473.1  114.988
 19.1656  13250.7  114.601
 19.3636  13170  114.447
 19.5616  13102.8  114.317
 19.7596  13448.6  115.233
 19.9576  13522.7  115.583
 20.1556  13961.3  117.971
 20.3536  13233  114.249
 20.5516  12851  113.024
 20.7496  12659.9  112.031
 20.9476  12517.2  111.247
 21.1456  12480.6  111.4
 21.3436  12301  110.551
 21.5416  12256.9  110.363
 21.7396  12216.5  110.026
 21.9376  11996.2  108.807
 22.1356  12163.5  109.834
 22.3336  11721.7  107.932
 22.5316  11817.9  108.479
 22.7296  11797.4  107.773
 22.9276  11755.3  108.229
 23.1256  11871.7  108.252
 23.3236  12262.5  110.585
 23.5216  12188.2  109.88
 23.7196  12043.5  109.408
 23.9176  12026.6  108.875
 24.1156  11874.9  108.631
 24.3136  11384.4  107.153
 24.5116  11632.6  107.844
 24.7096  11184.3  105.574
 24.9076  11039.2  104.91
 25.1056  10892.3  104.395
 25.3036  10670.6  103.111
 25.5016  10521.1  102.424
 25.6996  10482  101.825
 25.8976  10538.6  102.516
 26.0956  10401.5  101.869
 26.2936  10445.1  101.747
 26.4916  10669.5  102.687
 26.6896  10365.4  101.516
 26.8876  10321.2  101.168
 27.0856  10034.2  99.7612
 27.2836  9848.15  98.7705
 27.4816  9863.22  98.7741
 27.6796  9762.25  98.6302
 27.8776  10054  99.9452
 28.0756  9589.39  97.8997
 28.2736  9605.2  97.5723
 28.4716  9554.72  97.3595
 28.6696  9563.17  97.2582
 28.8676  9356.29  96.5454
 29.0656  9270.29  96.0717
 29.2636  9277.99  95.8312
 29.4616  8885.09  94.037
 29.6596  8955.17  93.9891
 29.8576  8762.4  93.6282
 30.0556  8856.6  94.0131
 30.2536  9037.56  94.7611
 30.4516  9157.56  95.036
 30.6496  9136.61  94.674
 30.8476  9038.71  94.5871
 31.0456  9148.91  95.1303
 31.2436  9083.01  94.0638
 31.4416  8932.26  93.467
 31.6396  8846.17  93.0636
 31.8376  8971.65  93.2303
 32.0356  8741.85  92.609
 32.2336  8918.84  92.951
 32.4316  8586.21  91.594
 32.6296  8611.49  91.4979
 32.8276  8590.38  91.2447
 33.0256  8476.57  90.6872
 33.2236  8522.92  91.0909
 33.4216  8589.5  91.1439
 33.6196  8413.11  90.483
 33.8176  8491.24  91.0598
 34.0156  8459.17  90.5253
 34.2136  8401.3  90.2366
 34.4116  8212.86  89.3848
 34.6096  8283.53  89.6493
 34.8076  8086.45  88.9813
 35.0056  8207.84  89.3182
 35.2036  8410.49  90.6444
 35.4016  8051.84  88.5994
 35.5996  8014.12  88.4287
 35.7976  7973.8  88.4646
 35.9956  8157.12  89.1336
 36.1936  8072.12  88.5219
 36.3916  7916.31  87.8554
 36.5896  8039.29  89.9735
 36.7876  7763.72  87.3731
 36.9856  7600.41  86.4695
 37.1836  7715.71  86.2551
 37.3816  7750.8  86.8063
 37.5796  7737.57  88.4123
 37.7776  7872.64  87.5669
 37.9756  7797.67  87.0493
 38.1736  7870.78  87.6365
 38.3716  7867.78  87.8932
 38.5696  7597.67  86.7357
 38.7676  7651.14  86.563
 38.9656  7673.25  86.3325
 39.1636  7732.21  86.8971
 39.3616  7628.05  86.2773
 39.5596  7450.21  86.0791
 39.7576  7618.24  86.4386
 39.9556  7551.43  85.7041
 40.1536  7685.83  86.6571
 40.3516  7580.42  86.0773
 40.5496  7794.49  87.3195
 40.7476  7616.3  86.5285
 40.9456  7690.99  86.7154
 41.1436  7710.54  86.5529
 41.3416  7533.93  85.8776
 41.5396  7527.83  85.6564
 41.7376  7496.15  85.7271
 41.9356  7506.19  85.6356
 42.1336  7708.07  86.9379
 42.3316  7478.99  85.8313
 42.5296  7638.83  86.2631
 42.7276  7581.05  86.1769
 42.9256  7463.43  85.3808
 43.1236  7448.73  85.4046
 43.3216  7560.44  85.8858
 43.5196  7460.32  85.2802
 43.7176  7429.37  85.4898
 43.9156  7266.57  84.4691
 44.1136  7292  84.1793
 44.3116  7247.96  83.9352
 44.5096  7267.72  84.354
 44.7076  7231.82  84.0755
 44.9056  7283.07  84.2438
 45.1036  7198.13  83.3857
 45.3016  7311.71  84.5352
 45.4996  7331.22  84.5883
 45.6976  7200.13  83.9965
 45.8956  7209.38  83.8781
 46.0936  7420.99  84.8619
 46.2916  7257.79  84.1413
 46.4896  7318.3  84.5285
 46.6876  7194.35  84.5009
 46.8856  7153.72  83.537
 47.0836  7109.39  83.521
 47.2816  7002.9  82.7779
 47.4796  7219.24  84.1512
 47.6776  7025.97  83.9523
 47.8756  7156.53  83.9081
 48.0736  7134.94  84.2293
 48.2716  7003.02  83.2686
 48.4696  7155.54  83.7645
 48.6676  7079.95  83.9094
 48.8656  7093.84  83.7139
 49.0636  7237.73  84.5096
 49.2616  6984.89  83.0564
 49.4596  7052.02  83.0133
 49.6576  6987.23  82.8487
 49.8556  7027.89  83.1185
 50.0536  7019.15  83.5126
 50.2516  7014.02  83.5922
 50.4496  7050.19  83.4894
 50.6476  7056.7  83.206
 50.8456  7027.52  83.1203
 51.0436  6696.51  81.5763
 51.2416  6763.57  81.6543
 51.4396  6674.6  81.52
 51.6376  6658.09  81.2435
 51.8356  6772.36  81.5641
 52.0336  6688.01  81.5621
 52.2316  6694.5  81.9501
 52.4296  6710.9  81.753
 52.6276  6666.07  81.5841
 52.8256  6709.99  81.4185
 53.0236  6798.62  82.6015
 53.2216  6626.97  81.5648
 53.4196  6694.18  81.9085
 53.6176  6621.91  81.96
 53.8156  6554.98  81.2155
 54.0136  6374.41  80.2513
 54.2116  6586.59  81.2091
 54.4096  6396.06  80.1016
 54.6076  6260.41  79.5777
 54.8056  6232.9  79.1919
 55.0036  6390.38  80.4632
 55.2016  6330.76  79.6342
 55.3996  6186.31  78.8043
 55.5976  6230.78  79.292
 55.7956  6170.13  78.7035
 55.9936  6326.15  79.8164
 56.1916  6236.57  79.2987
 56.3896  6044.2  78.0401
 56.5876  6060.74  78.6942
 56.7856  6053.09  78.1536
 56.9836  6187.2  78.7877
 57.1816  6140.46  78.8367
 57.3796  5970.62  77.5767
 57.5776  5970.89  77.4515
 57.7756  5946.5  77.9575
 57.9736  5957.29  77.6867
 58.1716  5875.99  77.4324
 58.3696  5692.28  75.9814
 58.5676  5707.26  75.5614
 58.7656  5658.98  75.8998
 58.9636  5771.93  76.6828
 59.1616  5664.98  76.0989
 59.3596  5712.3  75.6903
 59.5576  5921.55  77.1202
 59.7556  5505.97  74.7641
 59.9536  5761.09  76.3778
 60.1516  5803.24  77.4887
 60.1996  0.0000000E+00  0.0000000E+00