Folder: echemistpy/docs/examples/opeando_xrd/IS17_D/Data/IS17_D (part 15)

File: 17_Da_f00044.xye
# /beamlines/bl04/projects/cycle2025-II/20250340211-lsimonelli/DATA/IS17_D/17_Da_f00044.xye : mythproc.py merge -s 0.006 -l 0.5 -f /beamlines/bl04/inhouse/ff/FlatField/ff_20Nov2024rod8mm60s_17keV.raw -b True -c true -o xye /beamlines/bl04/projects/cycle2025-II/20250340211-lsimonelli/DATA/IS17_D/17_Da_00044.dat
# IsMon = [6768827, 6764811, 6769278]  IsPos = [-1.4999, -2.4885, -3.4988]
# Wave = 0.4962  CalPath /beamlines/bl04/projects/cycle2025-II/20250340211-lsimonelli/DATA/Align/Si_Pos1_25keV_f00001.cal
# Date = 2025-09-24_05:47:50 Dt = 4.8000  Bin = 0.0060  <imon> = 6767639 +/- 2008 (Min/Max) 6764811 / 6769278
# icurr 250.6759  mocoIn 1.7104E-05  mocoOut 0.8025  i15 7.08354e+06  imon 6.76764e+06  i7 6.3333  iEMpd_timer 4.8000  iEMpd_1 3.4519E-08  iEMpd_2 7.8147E-08  iEMpd_3 1.5251E-08  iEMpd_4 4.9678E-08  iEMhp_timer 4.8000  iEMhp_1 4.8976E-06  iEMhp_2 -2.4021E-08  iEMhp_3 -2.2759E-08  iEMhp_4 -2.0434E-08
#      9776
 1.7416  70939.8  266.398
 1.9396  47136.6  217.443
 2.1376  33952.1  184.532
 2.3356  30365.9  174.147
 2.5336  28428.8  169.095
 2.7316  26928.1  164.705
 2.9296  25623.5  160.84
 3.1276  25074.9  158.639
 3.3256  24497.1  156.48
 3.5236  26563.8  162.889
 3.7216  23940.4  155.736
 3.9196  23346.6  153.018
 4.1176  23317.4  152.683
 4.3156  24493.2  156.654
 4.5136  26807.4  162.874
 4.7116  27907.4  167.324
 4.9096  27157.1  164.488
 5.1076  26824.4  164.055
 5.3056  27008.2  164.348
 5.5036  26734.2  163.496
 5.7016  27179.8  164.734
 5.8996  27741.5  165.639
 6.0976  28500.1  169.33
 6.2956  28960.1  170.031
 6.4936  29813.3  171.693
 6.6916  30227.7  173.896
 6.8896  30772.1  175.31
 7.0876  32166.4  179.973
 7.2856  31955.6  178.433
 7.4836  32223.3  178.511
 7.6816  32945.2  181.037
 7.8796  34334.2  184.818
 8.0776  35901.4  189.972
 8.2756  37844.7  193.631
 8.4736  38280.1  194.563
 8.6716  37596.4  193.46
 8.8696  37626.3  193.977
 9.0676  36811.8  191.226
 9.2656  35569.3  188.661
 9.4636  35224.2  186.132
 9.6616  34486  184.967
 9.8596  33001.5  180.434
 10.0576  31225.6  176.187
 10.2556  30231.7  173.783
 10.4536  28902.3  169.526
 10.6516  28417.4  168.296
 10.8496  27307  164.368
 11.0476  26553.3  162.081
 11.2456  25798.6  160.331
 11.4436  25750.1  159.357
 11.6416  27183.4  164.099
 11.8396  24891  157.225
 12.0376  24893.2  156.859
 12.2356  24160.9  154.98
 12.4336  24167.6  154.518
 12.6316  23898.6  153.919
 12.8296  24192.4  154.502
 13.0276  24671.8  156.21
 13.2256  24894  157.281
 13.4236  24924.3  157.142
 13.6216  24756.6  156.621
 13.8196  24623.3  155.966
 14.0176  24208.2  154.947
 14.2156  23811.1  152.702
 14.4136  22573.1  150.054
 14.6116  22294.6  148.33
 14.8096  21746.3  146.476
 15.0076  20346.9  145.511
 15.2056  20086.2  140.386
 15.4036  19135.5  137.861
 15.6016  18829.8  135.831
 15.7996  18266.1  134.052
 15.9976  17721.4  135.008
 16.1956  16745.4  129.107
 16.3936  16570.1  127.605
 16.5916  16348.4  127.381
 16.7896  16249.5  127.056
 16.9876  16201.4  128.347
 17.1856  16181.8  126.637
 17.3836  15670.6  124.516
 17.5816  15164.5  122.973
 17.7796  14827.3  121.529
 17.9776  14588.1  121.314
 18.1756  14631.3  120.226
 18.3736  14407.9  119.808
 18.5716  14113.7  118.327
 18.7696  14175.4  118.164
 18.9676  13968.8  117.102
 19.1656  14045  117.98
 19.3636  13785.2  117.093
 19.5616  13772.4  117.205
 19.7596  13756.2  116.543
 19.9576  13910.5  117.246
 20.1556  14828.1  121.594
 20.3536  14276.6  118.675
 20.5516  13724  116.805
 20.7496  13308.8  114.963
 20.9476  13135.4  113.961
 21.1456  13315.5  115.077
 21.3436  13048.6  113.862
 21.5416  12916.3  113.285
 21.7396  12968.9  113.365
 21.9376  12807.4  112.419
 22.1356  12916.1  113.027
 22.3336  12726.3  112.471
 22.5316  12869.8  113.215
 22.7296  12725.9  111.942
 22.9276  12561.3  111.884
 23.1256  12845.1  112.606
 23.3236  12881.1  113.319
 23.5216  12734.3  112.323
 23.7196  12362  110.613
 23.9176  12458.1  110.796
 24.1156  12367.9  110.871
 24.3136  11822.8  109.207
 24.5116  12046.4  109.754
 24.7096  11541.4  107.251
 24.9076  11474.4  106.96
 25.1056  11425.7  106.935
 25.3036  11173.1  105.523
 25.5016  11125.4  105.326
 25.6996  11021.7  104.416
 25.8976  10947.9  104.498
 26.0956  11000.8  104.769
 26.2936  10835.3  103.635
 26.4916  10932  103.97
 26.6896  10793.7  103.608
 26.8876  10564  102.352
 27.0856  10641.9  102.739
 27.2836  10478.3  101.884
 27.4816  10213.9  100.523
 27.6796  10294.2  101.293
 27.8776  10220.9  100.784
 28.0756  10155.6  100.755
 28.2736  10057.6  99.8502
 28.4716  9807.05  98.6414
 28.6696  10037.1  99.6441
 28.8676  9837.85  98.9974
 29.0656  9738.57  98.4732
 29.2636  9755.37  98.2664
 29.4616  9525.93  97.3763
 29.6596  9599.22  97.3173
 29.8576  9621.74  98.1184
 30.0556  9591.78  97.838
 30.2536  9753.85  98.4582
 30.4516  9544.88  97.0367
 30.6496  9480.48  96.4352
 30.8476  9289.81  95.8982
 31.0456  9462.96  96.7486
 31.2436  9469.43  96.044
 31.4416  9185.92  94.7902
 31.6396  9189.63  94.8556
 31.8376  9200.56  94.4597
 32.0356  9112.66  94.563
 32.2336  9025.73  93.5054
 32.4316  9020.05  93.8854
 32.6296  9055.79  93.8354
 32.8276  9033.2  93.5579
 33.0256  8882.7  92.8559
 33.2236  8896.66  93.0706
 33.4216  8971.37  93.1483
 33.6196  8931.11  93.242
 33.8176  8856.99  93.0164
 34.0156  8837.64  92.5237
 34.2136  8740.5  92.0532
 34.4116  8696.35  91.9712
 34.6096  8700.8  91.8803
 34.8076  8512.81  91.2844
 35.0056  8557.19  91.2145
 35.2036  8511.17  91.1712
 35.4016  8632.32  91.7467
 35.5996  8496.75  91.0593
 35.7976  8455.56  91.1135
 35.9956  8521.85  91.1087
 36.1936  8430.18  90.4883
 36.3916  8349.77  90.234
 36.5896  8250.43  91.1311
 36.7876  8263.14  90.1412
 36.9856  8208.82  89.8745
 37.1836  8241.29  89.1535
 37.3816  8379.01  90.2587
 37.5796  8021.67  90.0191
 37.7776  7980.76  88.1638
 37.9756  8151.53  88.9892
 38.1736  8170.79  89.2948
 38.3716  8054.45  88.9308
 38.5696  7977.29  88.8898
 38.7676  7777.85  87.2855
 38.9656  7977.44  88.0334
 39.1636  7952.7  88.1315
 39.3616  8067.87  88.735
 39.5596  7900.53  88.6434
 39.7576  7890.31  87.9636
 39.9556  7944.78  87.9104
 40.1536  8014.76  88.4891
 40.3516  8051.94  88.7186
 40.5496  8018.57  88.58
 40.7476  8114.47  89.3219
 40.9456  8084.09  88.894
 41.1436  8001.33  88.165
 41.3416  7962.65  88.2913
 41.5396  7860.91  87.5322
 41.7376  7915.66  88.1012
 41.9356  7859.65  87.6506
 42.1336  7893.8  87.9846
 42.3316  7843.19  87.9033
 42.5296  7825.91  87.3222
 42.7276  7959.9  88.3097
 42.9256  7888.6  87.7828
 43.1236  7858.81  87.7259
 43.3216  7796.42  87.2336
 43.5196  7747.13  86.9168
 43.7176  7674.41  86.8949
 43.9156  7520.69  85.9398
 44.1136  7573.54  85.7932
 44.3116  7600.83  85.9526
 44.5096  7614.55  86.3516
 44.7076  7535.85  85.8294
 44.9056  7604.44  86.0778
 45.1036  7560.91  85.4568
 45.3016  7520.15  85.728
 45.4996  7343.86  84.6548
 45.6976  7303.91  84.5995
 45.8956  7417.63  85.0857
 46.0936  7332.85  84.597
 46.2916  7435.63  85.1731
 46.4896  7412.58  85.0707
 46.6876  7260.85  84.9074
 46.8856  7217.38  83.9139
 47.0836  7205.28  84.0838
 47.2816  7151.22  83.6557
 47.4796  7149.31  83.7487
 47.6776  7040  84.0399
 47.8756  7101.93  83.5872
 48.0736  7100.58  84.0234
 48.2716  6918.65  82.7699
 48.4696  7011.45  82.9128
 48.6676  6954.13  83.1563
 48.8656  7060.78  83.5337
 49.0636  7037.88  83.3334
 49.2616  6903.84  82.5781
 49.4596  6842.4  81.7681
 49.6576  6871.57  82.1655
 49.8556  6896.52  82.3395
 50.0536  6836.58  82.4153
 50.2516  6847.75  82.5972
 50.4496  6738.94  81.6267
 50.6476  6839.39  81.9145
 50.8456  6744.24  81.432
 51.0436  6657.25  81.3438
 51.2416  6625.67  80.8245
 51.4396  6432.13  80.0308
 51.6376  6496.21  80.256
 51.8356  6507.48  79.9604
 52.0336  6573.96  80.8593
 52.2316  6503.6  80.773
 52.4296  6547.1  80.7345
 52.6276  6472.66  80.3828
 52.8256  6625.27  80.8718
 53.0236  6426.49  80.3147
 53.2216  6412.69  80.262
 53.4196  6260.33  79.2295
 53.6176  6309.86  80.0128
 53.8156  6360.29  80.0033
 54.0136  6392.77  80.3815
 54.2116  6220.94  78.9582
 54.4096  6275.41  79.3588
 54.6076  6239.5  79.4762
 54.8056  6302.88  79.6657
 55.0036  6241.27  79.6637
 55.2016  6284.46  79.4855
 55.3996  6236.23  79.1503
 55.5976  6312  79.8204
 55.7956  6244.32  79.1988
 55.9936  6111.38  78.4917
 56.1916  6223.47  79.2284
 56.3896  6227.95  79.2487
 56.5876  6070.6  78.7841
 56.7856  6124.88  78.6212
 56.9836  6074.39  78.0749
 57.1816  6158.56  78.9962
 57.3796  6122.37  78.5717
 57.5776  6101.69  78.3634
 57.7756  6093.73  78.9443
 57.9736  6148.85  78.9746
 58.1716  6121.77  79.0428
 58.3696  6086.37  78.5772
 58.5676  6159.23  78.5083
 58.7656  6096.06  78.7816
 58.9636  6320.94  80.2561
 59.1616  6141.95  79.2378
 59.3596  6251.76  79.1822
 59.5576  6244.79  79.1957
 59.7556  6179.24  79.202
 59.9536  6204.11  79.2588
 60.1516  6045.52  79.0884
 60.1996  0.0000000E+00  0.0000000E+00

File: 17_Da_f00045.xye
# /beamlines/bl04/projects/cycle2025-II/20250340211-lsimonelli/DATA/IS17_D/17_Da_f00045.xye : mythproc.py merge -s 0.006 -l 0.5 -f /beamlines/bl04/inhouse/ff/FlatField/ff_20Nov2024rod8mm60s_17keV.raw -b True -c true -o xye /beamlines/bl04/projects/cycle2025-II/20250340211-lsimonelli/DATA/IS17_D/17_Da_00045.dat
# IsMon = [6774060, 6776664, 6778077]  IsPos = [-1.4999, -2.4884, -3.4986]
# Wave = 0.4962  CalPath /beamlines/bl04/projects/cycle2025-II/20250340211-lsimonelli/DATA/Align/Si_Pos1_25keV_f00001.cal
# Date = 2025-09-24_06:04:20 Dt = 4.8000  Bin = 0.0060  <imon> = 6776267 +/- 1664 (Min/Max) 6774060 / 6778077
# icurr 251.4424  mocoIn 1.7168E-05  mocoOut 0.8049  i15 7.08815e+06  imon 6.77627e+06  i7 7.0000  iEMpd_timer 4.8000  iEMpd_1 3.5115E-08  iEMpd_2 7.8039E-08  iEMpd_3 1.5839E-08  iEMpd_4 4.8501E-08  iEMhp_timer 4.8000  iEMhp_1 4.9135E-06  iEMhp_2 -2.5313E-08  iEMhp_3 -2.2738E-08  iEMhp_4 -2.1353E-08
#      9776
 1.7416  71976.1  268.404
 1.9396  47579.2  218.507
 2.1376  34417.4  185.838
 2.3356  30895.9  175.705
 2.5336  29033.8  170.927
 2.7316  27230.8  165.631
 2.9296  26046.1  162.162
 3.1276  25319.9  159.426
 3.3256  24998.5  158.06
 3.5236  26807.4  163.478
 3.7216  24448.9  157.384
 3.9196  23608.2  153.876
 4.1176  23528.8  153.384
 4.3156  24802.1  157.633
 4.5136  27102.5  163.759
 4.7116  28149.6  168.042
 4.9096  27444.8  165.358
 5.1076  27327  165.595
 5.3056  27624.1  166.101
 5.5036  27087  164.441
 5.7016  27440.2  165.52
 5.8996  28240.4  167.12
 6.0976  29009.7  170.844
 6.2956  29450.3  171.451
 6.4936  30085.1  172.482
 6.6916  30583.3  174.914
 6.8896  31473.8  177.298
 7.0876  32593.8  181.168
 7.2856  32388.9  179.642
 7.4836  32736  179.926
 7.6816  33595.6  182.813
 7.8796  34777.9  185.98
 8.0776  36480.9  191.475
 8.2756  38229.2  194.593
 8.4736  38786.5  195.823
 8.6716  38224.6  195.039
 8.8696  38241.1  195.584
 9.0676  37103.8  192.005
 9.2656  36166.3  190.259
 9.4636  35496.4  186.887
 9.6616  35018.7  186.404
 9.8596  33731.4  182.417
 10.0576  31867.7  177.974
 10.2556  30884.5  175.651
 10.4536  29405.7  170.997
 10.6516  28610.7  168.861
 10.8496  27828.8  165.943
 11.0476  27127  163.856
 11.2456  26319.6  161.934
 11.4436  26001.2  160.133
 11.6416  27664.9  165.543
 11.8396  25247.4  158.357
 12.0376  25188.7  157.799
 12.2356  24554.4  156.207
 12.4336  24606.4  155.92
 12.6316  24383.3  155.478
 12.8296  24720.1  156.181
 13.0276  25015.5  157.288
 13.2256  25307.4  158.58
 13.4236  25371.3  158.545
 13.6216  25028.2  157.488
 13.8196  24991.6  157.132
 14.0176  24763.9  156.705
 14.2156  24095.9  153.617
 14.4136  23037.5  151.59
 14.6116  22837.8  150.128
 14.8096  22113.3  147.707
 15.0076  20770.4  147.022
 15.2056  20427.6  141.554
 15.4036  19476  139.055
 15.6016  19140.4  136.929
 15.7996  18515.7  134.955
 15.9976  17814.9  135.354
 16.1956  17300.4  131.244
 16.3936  16925.2  128.982
 16.5916  16612.4  128.422
 16.7896  16544.2  128.216
 16.9876  16452.6  129.333
 17.1856  16533.6  127.994
 17.3836  15954.3  125.629
 17.5816  15403  123.936
 17.7796  15294.2  123.43
 17.9776  14745.3  121.975
 18.1756  14837.2  121.071
 18.3736  14690.5  120.97
 18.5716  14625.1  120.454
 18.7696  14509.7  119.549
 18.9676  14169.8  117.948
 19.1656  14179.4  118.542
 19.3636  14027.1  118.109
 19.5616  13950.2  117.952
 19.7596  14085.9  117.932
 19.9576  14247  118.647
 20.1556  14946.1  122.066
 20.3536  14788.2  120.774
 20.5516  13930.8  117.684
 20.7496  13592.6  116.185
 20.9476  13262.7  114.52
 21.1456  13473.3  115.752
 21.3436  13255.8  114.766
 21.5416  13251.3  114.747
 21.7396  13044.2  113.693
 21.9376  12914.3  112.891
 22.1356  13019.4  113.355
 22.3336  12978.3  113.585
 22.5316  12920.4  113.412
 22.7296  12875.2  112.572
 22.9276  12780.3  112.836
 23.1256  13097.1  113.698
 23.3236  13093.6  114.247
 23.5216  12832.7  112.768
 23.7196  12794.6  112.549
 23.9176  12487.7  110.946
 24.1156  12506.4  111.503
 24.3136  12159.4  110.751
 24.5116  12096.1  109.985
 24.7096  11884.5  108.828
 24.9076  11556.3  107.347
 25.1056  11268.6  106.466
 25.3036  11383.9  106.506
 25.5016  11269.1  106.001
 25.6996  11243  105.462
 25.8976  11147.5  105.449
 26.0956  11274.8  106.067
 26.2936  10947  104.161
 26.4916  11214.9  105.309
 26.6896  10917.8  104.202
 26.8876  10898.2  103.961
 27.0856  10828.2  103.695
 27.2836  10581.5  102.541
 27.4816  10583  102.322
 27.6796  10403.4  101.829
 27.8776  10414.6  101.746
 28.0756  10328.5  101.602
 28.2736  10210.5  100.607
 28.4716  10160.8  100.41
 28.6696  10017.7  99.5494
 28.8676  9903.72  99.3255
 29.0656  9837.17  98.971
 29.2636  9858.51  98.872
 29.4616  9710.95  98.3048
 29.6596  9918.56  98.9105
 29.8576  9663.72  98.3195
 30.0556  9733.1  98.5479
 30.2536  9704.25  98.1951
 30.4516  9666.61  97.6638
 30.6496  9613.12  97.1185
 30.8476  9750.55  98.2595
 31.0456  9550.96  97.2125
 31.2436  9640.06  96.917
 31.4416  9441.24  96.0983
 31.6396  9445.62  96.1678
 31.8376  9485.33  95.9155
 32.0356  9356  95.8143
 32.2336  9245.91  94.647
 32.4316  9121.26  94.4055
 32.6296  9235.94  94.8335
 32.8276  9212.31  94.482
 33.0256  9003.54  93.4816
 33.2236  8957  93.3893
 33.4216  9074.91  93.689
 33.6196  9144.45  94.3423
 33.8176  8931.23  93.4041
 34.0156  8956.82  93.1471
 34.2136  8880.69  92.7944
 34.4116  8759.95  92.3056
 34.6096  8844.56  92.6326
 34.8076  8679.81  92.1696
 35.0056  8698.18  91.963
 35.2036  8693.4  92.1405
 35.4016  8781.99  92.533
 35.5996  8529.59  91.2324
 35.7976  8645.32  92.1277
 35.9956  8648.63  91.782
 36.1936  8485.02  90.7832
 36.3916  8447.94  90.7605
 36.5896  8339.29  91.159
 36.7876  8543  91.648
 36.9856  8264.25  90.1681
 37.1836  8391.12  89.9441
 37.3816  8380.76  90.2571
 37.5796  8297.63  91.5592
 37.7776  8228.84  89.5398
 37.9756  8170.5  89.1084
 38.1736  8355.49  90.3072
 38.3716  8213.07  89.8133
 38.5696  8113.17  89.6446
 38.7676  7986.13  88.4467
 38.9656  8062.47  88.5019
 39.1636  8045.58  88.6812
 39.3616  8205.83  89.4825
 39.5596  7905.07  88.6647
 39.7576  8032.36  88.7436
 39.9556  8051.08  88.4935
 40.1536  8148.98  89.2315
 40.3516  8120.12  89.1853
 40.5496  8155.77  89.5459
 40.7476  8150.23  89.5136
 40.9456  8203.87  89.5552
 41.1436  8192.99  89.2218
 41.3416  8144.84  89.2902
 41.5396  8022.87  88.4308
 41.7376  8076.44  88.9932
 41.9356  7974.33  88.2836
 42.1336  7960.12  88.3608
 42.3316  7983.37  88.6846
 42.5296  8062.72  88.6328
 42.7276  8073.87  88.9403
 42.9256  7994.43  88.3645
 43.1236  7916.24  88.0454
 43.3216  7959.88  88.0366
 43.5196  7881.5  87.6596
 43.7176  7827.87  87.7648
 43.9156  7732.88  87.1343
 44.1136  7713.68  86.5743
 44.3116  7716.99  86.5997
 44.5096  7692.21  86.7783
 44.7076  7654.61  86.4959
 44.9056  7696.8  86.6073
 45.1036  7576.1  85.5526
 45.3016  7480.73  85.5087
 45.4996  7515.08  85.6458
 45.6976  7332.91  84.7743
 45.8956  7459.94  85.3273
 46.0936  7547.66  85.8293
 46.2916  7402.38  84.9824
 46.4896  7531.11  85.7518
 46.6876  7365.81  85.5129
 46.8856  7227.06  84.0718
 47.0836  7330.8  84.8222
 47.2816  7328.8  84.6781
 47.4796  7304.5  84.637
 47.6776  7126.65  84.5554
 47.8756  7112.2  83.6445
 48.0736  7258.65  84.949
 48.2716  7065  83.6356
 48.4696  7157.65  83.7728
 48.6676  7194.21  84.5855
 48.8656  7188.74  84.263
 49.0636  7119.18  83.821
 49.2616  6973.08  82.9837
 49.4596  7243.76  84.1416
 49.6576  7019.65  83.0513
 49.8556  6977.47  82.8217
 50.0536  6903.64  82.8278
 50.2516  6982.85  83.4361
 50.4496  6910.36  82.655
 50.6476  6896.56  82.2558
 50.8456  6855.28  82.0998
 51.0436  6741.68  81.8482
 51.2416  6688.91  81.1929
 51.4396  6637.04  81.2849
 51.6376  6727.09  81.6603
 51.8356  6706.47  81.1612
 52.0336  6586.76  80.9468
 52.2316  6581.41  81.2643
 52.4296  6607.66  81.1135
 52.6276  6628.47  81.3595
 52.8256  6659.65  81.1075
 53.0236  6496.38  80.7508
 53.2216  6478.44  80.6745
 53.4196  6378.94  79.9729
 53.6176  6298.6  79.9419
 53.8156  6401.23  80.2597
 54.0136  6418.48  80.5424
 54.2116  6376.02  79.9385
 54.4096  6365.63  79.9261
 54.6076  6371.09  80.3086
 54.8056  6336.53  79.8762
 55.0036  6322.2  80.1779
 55.2016  6369.4  80.0231
 55.3996  6348.13  79.8526
 55.5976  6362.45  80.1369
 55.7956  6305.97  79.5985
 55.9936  6248.37  79.3701
 56.1916  6353.13  80.0455
 56.3896  6325.98  79.8674
 56.5876  6125.28  79.1385
 56.7856  6221.93  79.2432
 56.9836  6238.77  79.1303
 57.1816  6304.14  79.931
 57.3796  6324.44  79.8201
 57.5776  6238.91  79.2365
 57.7756  6220.99  79.7681
 57.9736  6190.68  79.241
 58.1716  6233.5  79.756
 58.3696  6233.18  79.5024
 58.5676  6306.45  79.4249
 58.7656  6188.01  79.3646
 58.9636  6369.55  80.5535
 59.1616  6123.9  79.1087
 59.3596  6356.1  79.8364
 59.5576  6329.22  79.7283
 59.7556  6256.87  79.697
 59.9536  6213.83  79.3198
 60.1516  6262.73  80.4956
 60.1996  0.0000000E+00  0.0000000E+00