Folder: echemistpy/docs/examples/opeando_xrd/IS17_D/Data/IS17_D (part 81)

File: 17_Db_f00052.xye
# /beamlines/bl04/projects/cycle2025-II/20250340211-lsimonelli/DATA/IS17_D/17_Db_f00052.xye : mythproc.py merge -s 0.006 -l 0.5 -f /beamlines/bl04/inhouse/ff/FlatField/ff_20Nov2024rod8mm60s_17keV.raw -b True -c true -o xye /beamlines/bl04/projects/cycle2025-II/20250340211-lsimonelli/DATA/IS17_D/17_Db_00052.dat
# IsMon = [6760501, 6757310, 6758702]  IsPos = [-1.4999, -2.4885, -3.4988]
# Wave = 0.4962  CalPath /beamlines/bl04/projects/cycle2025-II/20250340211-lsimonelli/DATA/Align/Si_Pos1_25keV_f00001.cal
# Date = 2025-09-24_08:10:41 Dt = 4.8000  Bin = 0.0060  <imon> = 6758838 +/- 1306 (Min/Max) 6757310 / 6760501
# icurr 250.0381  mocoIn 1.7061E-05  mocoOut 0.8000  i15 7.07937e+06  imon 6.75884e+06  i7 4.3333  iEMpd_timer 4.8000  iEMpd_1 3.6439E-08  iEMpd_2 7.8928E-08  iEMpd_3 1.7916E-08  iEMpd_4 4.7792E-08  iEMhp_timer 4.8000  iEMhp_1 4.8854E-06  iEMhp_2 -2.6064E-08  iEMhp_3 -2.4494E-08  iEMhp_4 -2.3073E-08
#      9776
 1.7416  70659.1  265.861
 1.9396  48950.8  221.56
 2.1376  36189.5  190.508
 2.3356  32676.7  180.646
 2.5336  30149.2  174.129
 2.7316  27819.5  167.406
 2.9296  26428.4  163.318
 3.1276  26081.6  161.777
 3.3256  25202.7  158.697
 3.5236  26720.1  163.344
 3.7216  24541.6  157.669
 3.9196  24026.7  155.217
 4.1176  23938  154.698
 4.3156  24660.3  157.189
 4.5136  27179.9  163.997
 4.7116  28131.2  167.983
 4.9096  27389.3  165.183
 5.1076  27134  164.995
 5.3056  27218.4  164.978
 5.5036  26911.4  164.036
 5.7016  27299.2  165.092
 5.8996  27746.5  165.667
 6.0976  28645.4  169.736
 6.2956  28708.9  169.288
 6.4936  29429.7  170.584
 6.6916  30009.4  173.247
 6.8896  30864.9  175.557
 7.0876  31775.2  178.871
 7.2856  31732.9  177.797
 7.4836  32175.3  178.371
 7.6816  32929.7  180.968
 7.8796  33682.5  183.047
 8.0776  35103  187.855
 8.2756  36822.8  191.012
 8.4736  37527.4  192.639
 8.6716  36704.8  191.146
 8.8696  37545.4  193.802
 9.0676  36433.8  190.232
 9.2656  35585.1  188.71
 9.4636  34640.9  184.646
 9.6616  33994  183.637
 9.8596  33377.4  181.427
 10.0576  31199.4  176.09
 10.2556  30277.9  173.905
 10.4536  29258.6  170.542
 10.6516  28730.3  169.211
 10.8496  27312.5  164.403
 11.0476  26294.8  161.283
 11.2456  25886.1  160.6
 11.4436  26028.6  160.221
 11.6416  27130.7  163.916
 11.8396  24963.4  157.435
 12.0376  24361  155.164
 12.2356  23992.1  154.44
 12.4336  23954.9  153.836
 12.6316  23820.9  153.662
 12.8296  23949.9  153.698
 13.0276  24311.4  155.07
 13.2256  24540  156.157
 13.4236  24479  155.732
 13.6216  24870.3  156.958
 13.8196  27014.6  163.071
 14.0176  23883.4  153.903
 14.2156  23403.3  151.364
 14.4136  22233.1  148.924
 14.6116  22071.4  147.573
 14.8096  21344.8  145.102
 15.0076  20379.8  145.68
 15.2056  19375.2  137.88
 15.4036  18478.2  135.477
 15.6016  18116.9  133.237
 15.7996  17517.9  131.281
 15.9976  17316.8  133.428
 16.1956  17053.5  130.263
 16.3936  16644.3  127.88
 16.5916  16314.7  127.252
 16.7896  16108.3  126.501
 16.9876  16371.2  129
 17.1856  16243.7  126.866
 17.3836  15625.5  124.331
 17.5816  15204.3  123.124
 17.7796  15140.1  122.788
 17.9776  14561.4  121.183
 18.1756  14535.6  119.847
 18.3736  14372.6  119.649
 18.5716  14201.1  118.692
 18.7696  14185.7  118.196
 18.9676  14076.5  117.544
 19.1656  13752.8  116.76
 19.3636  13841.3  117.333
 19.5616  13720.2  116.981
 19.7596  13995.3  117.54
 19.9576  14291.8  118.833
 20.1556  14703.5  121.076
 20.3536  13905.4  117.107
 20.5516  13430.4  115.532
 20.7496  13220.2  114.575
 20.9476  13190.3  114.195
 21.1456  12980.5  113.612
 21.3436  12801.3  112.778
 21.5416  12716.8  112.418
 21.7396  12691  112.147
 21.9376  12610  111.56
 22.1356  12675.9  111.975
 22.3336  12403.2  111.036
 22.5316  12387.2  111.074
 22.7296  12409.5  110.546
 22.9276  12283.3  110.644
 23.1256  12565.4  111.385
 23.3236  12680.1  112.449
 23.5216  12580.9  111.638
 23.7196  12403.4  110.802
 23.9176  12599.9  111.422
 24.1156  12210.8  110.145
 24.3136  11990.2  109.969
 24.5116  12071.2  109.851
 24.7096  11672.5  107.839
 24.9076  11610.7  107.576
 25.1056  11307.1  106.371
 25.3036  10982.2  104.61
 25.5016  10952  104.5
 25.6996  11075.4  104.669
 25.8976  11000.8  104.743
 26.0956  10884.1  104.202
 26.2936  10773  103.335
 26.4916  11163.9  105.049
 26.6896  10875.1  103.987
 26.8876  10674.4  102.881
 27.0856  10451.3  101.81
 27.2836  10308.5  101.046
 27.4816  10316.9  101.021
 27.6796  10205.6  100.853
 27.8776  10423.7  101.764
 28.0756  9981.24  99.8778
 28.2736  10004.4  99.5809
 28.4716  9850.04  98.8616
 28.6696  9895.15  98.9364
 28.8676  9813.92  98.8747
 29.0656  9756.85  98.5659
 29.2636  9829.35  98.6344
 29.4616  9402.64  96.7455
 29.6596  9556.33  97.0995
 29.8576  9255.95  96.2381
 30.0556  9170.41  95.665
 30.2536  9385.97  96.5829
 30.4516  9570.89  97.1499
 30.6496  9549.95  96.7837
 30.8476  9463.64  96.7792
 31.0456  9412.43  96.4861
 31.2436  9352.59  95.4429
 31.4416  9239.23  95.0586
 31.6396  9435.5  96.1066
 31.8376  9368.37  95.2788
 32.0356  9268.39  95.3425
 32.2336  9188.88  94.3372
 32.4316  8930.02  93.4047
 32.6296  9049.4  93.7977
 32.8276  9007.25  93.4328
 33.0256  8791.76  92.3693
 33.2236  8865.46  92.8918
 33.4216  8913.98  92.8367
 33.6196  8846.79  92.783
 33.8176  8847.6  92.9552
 34.0156  8712.64  91.8752
 34.2136  8761.55  92.1456
 34.4116  8544.55  91.1771
 34.6096  8626.51  91.4845
 34.8076  8593.69  91.7271
 35.0056  8538.22  91.101
 35.2036  8698.18  92.1761
 35.4016  8392.37  90.4589
 35.5996  8446.95  90.7832
 35.7976  8376.63  90.675
 35.9956  8578.48  91.4128
 36.1936  8361.93  90.1075
 36.3916  8351.45  90.2375
 36.5896  8298.23  91.4047
 36.7876  8114.45  89.3328
 36.9856  7919.58  88.2773
 37.1836  7983.99  87.7484
 37.3816  8035.95  88.3985
 37.5796  8146.75  90.7271
 37.7776  8098.09  88.816
 37.9756  8101.51  88.7169
 38.1736  8238.89  89.667
 38.3716  8046  88.8763
 38.5696  7902.4  88.4595
 38.7676  7874.54  87.8156
 38.9656  8016.85  88.2278
 39.1636  7966.38  88.2012
 39.3616  8019.13  88.4613
 39.5596  7912.03  88.7082
 39.7576  7754.72  87.211
 39.9556  7912.87  87.7355
 40.1536  8004.14  88.4288
 40.3516  7939.37  88.0872
 40.5496  7991.82  88.4272
 40.7476  8034.01  88.8695
 40.9456  7927.46  88.0386
 41.1436  8050.44  88.4352
 41.3416  7937.58  88.153
 41.5396  7965.76  88.1137
 41.7376  7788.68  87.3915
 41.9356  7939.28  88.0842
 42.1336  8041.82  88.7803
 42.3316  7788.74  87.5983
 42.5296  7885.54  87.6514
 42.7276  7940.25  88.2012
 42.9256  7845.54  87.5448
 43.1236  7710.54  86.877
 43.3216  7841.08  87.4712
 43.5196  7761.15  86.9899
 43.7176  7667.44  86.8576
 43.9156  7475.77  85.6865
 44.1136  7497.81  85.3674
 44.3116  7550.94  85.6781
 44.5096  7566.26  86.0783
 44.7076  7498.89  85.623
 44.9056  7690.13  86.5654
 45.1036  7553.97  85.4216
 45.3016  7597.3  86.1657
 45.4996  7523.35  85.6842
 45.6976  7541.22  85.9695
 45.8956  7488.45  85.4802
 46.0936  7668.02  86.5007
 46.2916  7464.72  85.3321
 46.4896  7619.36  86.229
 46.6876  7526.83  86.4323
 46.8856  7532.07  85.7125
 47.0836  7462.09  85.5649
 47.2816  7349.97  84.8064
 47.4796  7359.06  84.9701
 47.6776  7318  85.6823
 47.8756  7437.01  85.5365
 48.0736  7424.88  85.9279
 48.2716  7290.93  84.9682
 48.4696  7531.98  85.9416
 48.6676  7357.81  85.5329
 48.8656  7415.21  85.5878
 49.0636  7452.79  85.749
 49.2616  7331.72  85.0955
 49.4596  7326.93  84.6202
 49.6576  7288.7  84.6163
 49.8556  7275.72  84.573
 50.0536  7326.47  85.317
 50.2516  7248.12  84.979
 50.4496  7303.94  84.9793
 50.6476  7332.44  84.8154
 50.8456  7344.74  84.9613
 51.0436  7023.81  83.5527
 51.2416  7047.21  83.3626
 51.4396  6841.16  82.5383
 51.6376  7012.75  83.3856
 51.8356  7012.86  83.0014
 52.0336  7077.63  83.897
 52.2316  7128.86  84.5638
 52.4296  7005.97  83.5328
 52.6276  6922.08  83.1422
 52.8256  6962.43  82.9353
 53.0236  7121.54  84.5339
 53.2216  6962.86  83.6279
 53.4196  6870.59  82.9733
 53.6176  6850.83  83.3614
 53.8156  6887.09  83.2499
 54.0136  6612.35  81.7468
 54.2116  6854.71  82.8422
 54.4096  6692.2  81.9399
 54.6076  6615.36  81.8116
 54.8056  6543.51  81.1389
 55.0036  6580.11  81.7829
 55.2016  6653.28  81.7351
 55.3996  6476.9  80.6454
 55.5976  6610.23  81.6682
 55.7956  6498.4  80.772
 55.9936  6581.47  81.4285
 56.1916  6377.62  80.1877
 56.3896  6262.17  79.4491
 56.5876  6394.23  80.826
 56.7856  6318.17  79.8477
 56.9836  6380.4  80.0151
 57.1816  6393.14  80.4559
 57.3796  6237.3  79.2867
 57.5776  6237.27  79.1796
 57.7756  6231.77  79.8239
 57.9736  6127.78  78.7982
 58.1716  6064.03  78.6671
 58.3696  6043.07  78.2925
 58.5676  6027.54  77.6668
 58.7656  5944.36  77.7982
 58.9636  5996.81  78.1687
 59.1616  5963.46  78.0814
 59.3596  5946.35  77.234
 59.5576  5975.66  77.4806
 59.7556  5908.06  77.4548
 59.9536  6052.7  78.2959
 60.1516  5984.3  78.6972
 60.1996  0.0000000E+00  0.0000000E+00

File: 17_Db_f00053.xye
# /beamlines/bl04/projects/cycle2025-II/20250340211-lsimonelli/DATA/IS17_D/17_Db_f00053.xye : mythproc.py merge -s 0.006 -l 0.5 -f /beamlines/bl04/inhouse/ff/FlatField/ff_20Nov2024rod8mm60s_17keV.raw -b True -c true -o xye /beamlines/bl04/projects/cycle2025-II/20250340211-lsimonelli/DATA/IS17_D/17_Db_00053.dat
# IsMon = [6766543, 6770001, 6768147]  IsPos = [-1.4999, -2.4885, -3.4988]
# Wave = 0.4962  CalPath /beamlines/bl04/projects/cycle2025-II/20250340211-lsimonelli/DATA/Align/Si_Pos1_25keV_f00001.cal
# Date = 2025-09-24_08:27:11 Dt = 4.8000  Bin = 0.0060  <imon> = 6768230 +/- 1413 (Min/Max) 6766543 / 6770001
# icurr 250.8289  mocoIn 1.7115E-05  mocoOut 0.8026  i15 7.08806e+06  imon 6.76823e+06  i7 5.0000  iEMpd_timer 4.8000  iEMpd_1 3.5247E-08  iEMpd_2 7.8703E-08  iEMpd_3 1.6800E-08  iEMpd_4 4.7826E-08  iEMhp_timer 4.8000  iEMhp_1 4.9005E-06  iEMhp_2 -2.5165E-08  iEMhp_3 -2.4969E-08  iEMhp_4 -2.1673E-08
#      9776
 1.7416  70659.1  265.927
 1.9396  49197.6  222.185
 2.1376  36098.9  190.317
 2.3356  32530.7  180.286
 2.5336  29827  173.24
 2.7316  27607.1  166.767
 2.9296  26639.3  163.981
 3.1276  26331.6  162.558
 3.3256  25201.4  158.682
 3.5236  27026  164.272
 3.7216  24439.5  157.336
 3.9196  24015.2  155.17
 4.1176  24024.8  154.989
 4.3156  24847.5  157.789
 4.5136  27135.5  163.848
 4.7116  28213.7  168.232
 4.9096  27338.5  165.031
 5.1076  27217.8  165.256
 5.3056  27218  164.969
 5.5036  26981.8  164.251
 5.7016  27337.9  165.202
 5.8996  28000.5  166.423
 6.0976  28724.9  169.984
 6.2956  28935.1  169.946
 6.4936  29733.6  171.46
 6.6916  30159.7  173.683
 6.8896  30946.6  175.796
 7.0876  31737.6  178.763
 7.2856  31766.1  177.886
 7.4836  32390.8  178.966
 7.6816  32998.3  181.15
 7.8796  33871.7  183.543
 8.0776  35329.1  188.436
 8.2756  37015.8  191.5
 8.4736  37639.9  192.91
 8.6716  36874.7  191.557
 8.8696  37729  194.299
 9.0676  37002.3  191.74
 9.2656  35819.2  189.35
 9.4636  34701.8  184.824
 9.6616  34180.9  184.166
 9.8596  33555.9  181.906
 10.0576  31239.6  176.18
 10.2556  30941.1  175.792
 10.4536  29236.5  170.481
 10.6516  28500.3  168.534
 10.8496  27358.6  164.545
 11.0476  26423.1  161.669
 11.2456  26017.7  161
 11.4436  26069.3  160.342
 11.6416  26806.9  162.928
 11.8396  25064.1  157.758
 12.0376  24497.5  155.594
 12.2356  23936.7  154.265
 12.4336  24078.5  154.227
 12.6316  24052.3  154.413
 12.8296  24121.8  154.251
 13.0276  24336  155.14
 13.2256  24754.5  156.841
 13.4236  24394.2  155.461
 13.6216  24851.3  156.907
 13.8196  26811.4  162.448
 14.0176  23853.9  153.797
 14.2156  23605.4  152.028
 14.4136  22459.9  149.677
 14.6116  21994.7  147.32
 14.8096  21320.8  145.027
 15.0076  20347.1  145.567
 15.2056  19486.1  138.256
 15.4036  18602.7  135.917
 15.6016  18364.6  134.128
 15.7996  17628.1  131.686
 15.9976  17455.9  133.946
 16.1956  17079.4  130.381
 16.3936  16739.6  128.261
 16.5916  16307.2  127.224
 16.7896  16472.7  127.934
 16.9876  16293.2  128.685
 17.1856  16202.9  126.696
 17.3836  15691.5  124.595
 17.5816  15236.9  123.254
 17.7796  15042.2  122.392
 17.9776  14604.9  121.371
 18.1756  14624.8  120.214
 18.3736  14418.2  119.84
 18.5716  14306.2  119.118
 18.7696  14326.6  118.777
 18.9676  14133.8  117.778
 19.1656  13780.5  116.88
 19.3636  13801.7  117.154
 19.5616  13858  117.567
 19.7596  14007.4  117.609
 19.9576  14198.2  118.438
 20.1556  14756.3  121.283
 20.3536  13864.9  116.942
 20.5516  13500.6  115.842
 20.7496  13270.3  114.795
 20.9476  13173  114.124
 21.1456  12953.3  113.489
 21.3436  12849.5  112.989
 21.5416  12760.1  112.609
 21.7396  12691.7  112.149
 21.9376  12600  111.515
 22.1356  12757.8  112.33
 22.3336  12413.6  111.069
 22.5316  12394.8  111.093
 22.7296  12420.5  110.576
 22.9276  12192  110.216
 23.1256  12533.6  111.23
 23.3236  12806.6  113.023
 23.5216  12440.6  111.03
 23.7196  12383.2  110.732
 23.9176  12653.4  111.682
 24.1156  12409.9  111.068
 24.3136  11946.1  109.755
 24.5116  12118.1  110.076
 24.7096  11688.6  107.904
 24.9076  11633.1  107.69
 25.1056  11350.4  106.562
 25.3036  11017.6  104.768
 25.5016  11029.4  104.871
 25.6996  11176.1  105.145
 25.8976  11036.5  104.918
 26.0956  10820.8  103.899
 26.2936  10925.1  104.055
 26.4916  11159.3  105.009
 26.6896  10758.2  103.435
 26.8876  10632.9  102.683
 27.0856  10532  102.202
 27.2836  10419  101.593
 27.4816  10422.5  101.541
 27.6796  10200.9  100.823
 27.8776  10458.8  101.947
 28.0756  10119.9  100.57
 28.2736  10127.6  100.195
 28.4716  9989.95  99.5635
 28.6696  10019.2  99.5487
 28.8676  9726.8  98.4339
 29.0656  9659.37  98.0715
 29.2636  9855.14  98.7728
 29.4616  9460.44  97.0279
 29.6596  9412.78  96.3559
 29.8576  9179.57  95.8282
 30.0556  9273.68  96.1977
 30.2536  9566.77  97.4965
 30.4516  9427.5  96.4341
 30.6496  9449.87  96.2874
 30.8476  9482.42  96.8992
 31.0456  9411.14  96.4948
 31.2436  9526.4  96.3479
 31.4416  9246.68  95.0905
 31.6396  9450.94  96.1845
 31.8376  9300.74  94.9386
 32.0356  9151.44  94.7426
 32.2336  9413.18  95.4939
 32.4316  8948.09  93.4914
 32.6296  8950.73  93.2702
 32.8276  8928.27  93.026
 33.0256  8915.09  93.0009
 33.2236  8891.72  93.041
 33.4216  8883.92  92.6787
 33.6196  8884.03  92.9755
 33.8176  8729.11  92.3389
 34.0156  8757.89  92.1121
 34.2136  8801.4  92.3596
 34.4116  8584.88  91.3831
 34.6096  8694.51  91.8449
 34.8076  8542.82  91.4568
 35.0056  8565.92  91.2398
 35.2036  8686.3  92.1075
 35.4016  8476.96  90.8967
 35.5996  8352.98  90.2791
 35.7976  8396.97  90.7938
 35.9956  8444.43  90.6882
 36.1936  8510.16  90.9027
 36.3916  8284.18  89.8812
 36.5896  8338.67  91.635
 36.7876  8040.52  88.9102
 36.9856  7970.14  88.5404
 37.1836  8042.73  88.061
 37.3816  8016.23  88.2826
 37.5796  8112.83  90.5371
 37.7776  8118.5  88.9425
 37.9756  8110.58  88.7843
 38.1736  8134.41  89.1056
 38.3716  8033.22  88.818
 38.5696  7946.16  88.7033
 38.7676  7931.45  88.1373
 38.9656  8082.4  88.5882
 39.1636  8040.69  88.6066
 39.3616  7913.08  87.8649
 39.5596  7816.75  88.1653
 39.7576  7846.3  87.7231
 39.9556  7924.92  87.801
 40.1536  7995  88.3876
 40.3516  7993.41  88.3863
 40.5496  7948.52  88.1856
 40.7476  7998.1  88.6705
 40.9456  8123.05  89.1084
 41.1436  8062.46  88.5028
 41.3416  7926.31  88.0866
 41.5396  7906.08  87.7801
 41.7376  7967.66  88.3709
 41.9356  7887.51  87.796
 42.1336  8091.46  89.0736
 42.3316  7880.25  88.1099
 42.5296  7932.44  87.9088
 42.7276  7810.26  87.4689
 42.9256  7880.85  87.7417
 43.1236  7732.35  87.0121
 43.3216  7827.85  87.3969
 43.5196  7781.74  87.1006
 43.7176  7659.43  86.8069
 43.9156  7425.26  85.383
 44.1136  7577.78  85.8111
 44.3116  7665.36  86.3221
 44.5096  7545.92  85.9498
 44.7076  7607.41  86.2316
 44.9056  7687.62  86.559
 45.1036  7576.37  85.5547
 45.3016  7530.21  85.7936
 45.4996  7586.18  86.0526
 45.6976  7484.08  85.6479
 45.8956  7547.86  85.8131
 46.0936  7663.54  86.482
 46.2916  7556.46  85.8532
 46.4896  7646.11  86.3619
 46.6876  7525.92  86.4353
 46.8856  7447.13  85.2303
 47.0836  7425.15  85.361
 47.2816  7329.28  84.6835
 47.4796  7483.54  85.685
 47.6776  7356.58  85.9068
 47.8756  7434.37  85.5225
 48.0736  7430.87  85.9636
 48.2716  7300.93  85.0256
 48.4696  7399.87  85.1807
 48.6676  7393.82  85.7482
 48.8656  7451.42  85.8055
 49.0636  7418.67  85.5498
 49.2616  7239.73  84.5434
 49.4596  7385.83  84.9498
 49.6576  7324.6  84.8289
 49.8556  7311.12  84.7776
 50.0536  7367.64  85.5643
 50.2516  7325.8  85.4306
 50.4496  7395.59  85.5056
 50.6476  7218.96  84.1518
 50.8456  7230.16  84.29
 51.0436  7139.73  84.2295
 51.2416  7203.92  84.2775
 51.4396  6948.72  83.1732
 51.6376  6991.84  83.2458
 51.8356  7049.96  83.213
 52.0336  7131.22  84.2248
 52.2316  7014.92  83.8934
 52.4296  6913.85  82.9902
 52.6276  6948.33  83.3098
 52.8256  7039.95  83.4056
 53.0236  7063.6  84.1928
 53.2216  6926.75  83.4106
 53.4196  6952.48  83.4755
 53.6176  7040.55  84.5003
 53.8156  6957.25  83.6732
 54.0136  6697.07  82.2652
 54.2116  6785.54  82.4491
 54.4096  6677.38  81.8469
 54.6076  6625.13  81.875
 54.8056  6568.86  81.3096
 55.0036  6683.84  82.3975
 55.2016  6760.76  82.3973
 55.3996  6434.56  80.3727
 55.5976  6391.08  80.3092
 55.7956  6574.68  81.2608
 55.9936  6608.03  81.5869
 56.1916  6428.03  80.5103
 56.3896  6317.56  79.7872
 56.5876  6348.23  80.5411
 56.7856  6313.12  79.8181
 56.9836  6414.69  80.2245
 57.1816  6438.25  80.732
 57.3796  6268  79.4817
 57.5776  6287.21  79.4799
 57.7756  6193.12  79.5831
 57.9736  6169.88  79.0802
 58.1716  6240.69  79.8011
 58.3696  5991.83  77.9498
 58.5676  6028.87  77.6572
 58.7656  5981.94  78.034
 58.9636  6080.39  78.6988
 59.1616  5979.48  78.175
 59.3596  6070.46  78.0358
 59.5576  5876.07  76.8319
 59.7556  5797.71  76.7277
 59.9536  6171.13  79.0579
 60.1516  6014.21  78.8933
 60.1996  0.0000000E+00  0.0000000E+00