Folder: echemistpy/docs/examples/opeando_xrd/IS17_D/Data/IS17_D (part 57)

File: 17_Da_f00144.xye
# /beamlines/bl04/projects/cycle2025-II/20250340211-lsimonelli/DATA/IS17_D/17_Da_f00144.xye : mythproc.py merge -s 0.006 -l 0.5 -f /beamlines/bl04/inhouse/ff/FlatField/ff_20Nov2024rod8mm60s_17keV.raw -b True -c true -o xye /beamlines/bl04/projects/cycle2025-II/20250340211-lsimonelli/DATA/IS17_D/17_Da_00144.dat
# IsMon = [6779222, 6784127, 6778591]  IsPos = [-1.4999, -2.4884, -3.4988]
# Wave = 0.4962  CalPath /beamlines/bl04/projects/cycle2025-II/20250340211-lsimonelli/DATA/Align/Si_Pos1_25keV_f00001.cal
# Date = 2025-09-25_09:42:18 Dt = 4.8000  Bin = 0.0060  <imon> = 6780647 +/- 2474 (Min/Max) 6778591 / 6784127
# icurr 252.0975  mocoIn 1.7196E-05  mocoOut 0.8077  i15 7.09711e+06  imon 6.78065e+06  i7 7.3333  iEMpd_timer 4.8000  iEMpd_1 3.6420E-08  iEMpd_2 7.9668E-08  iEMpd_3 1.8675E-08  iEMpd_4 4.9124E-08  iEMhp_timer 4.8000  iEMhp_1 4.9253E-06  iEMhp_2 -2.6387E-08  iEMhp_3 -2.5066E-08  iEMhp_4 -2.1317E-08
#      9776
 1.7416  70953.2  266.475
 1.9396  46761.1  216.605
 2.1376  32643.7  180.976
 2.3356  29457.4  171.556
 2.5336  27569.8  166.552
 2.7316  25850.1  161.353
 2.9296  24357.3  156.794
 3.1276  24024.4  155.276
 3.3256  23584.6  153.501
 3.5236  25601.2  159.73
 3.7216  23308.7  153.667
 3.9196  23154.6  152.391
 4.1176  22895.4  151.306
 4.3156  24195.8  155.711
 4.5136  26743.1  162.66
 4.7116  27574.4  166.319
 4.9096  26898.6  163.709
 5.1076  26487.2  163.028
 5.3056  27113.2  164.678
 5.5036  27007.4  164.224
 5.7016  27476.5  165.629
 5.8996  28247.2  167.135
 6.0976  28934  170.62
 6.2956  29130.5  170.524
 6.4936  29767.9  171.565
 6.6916  30168.9  173.725
 6.8896  30999.5  175.957
 7.0876  31936.5  179.331
 7.2856  31969.9  178.475
 7.4836  32255.1  178.602
 7.6816  33033.3  181.279
 7.8796  34602.5  185.524
 8.0776  36494.2  191.515
 8.2756  38116.6  194.333
 8.4736  38858  196.002
 8.6716  38088.3  194.682
 8.8696  38018.8  195.027
 9.0676  37266.3  192.446
 9.2656  36311.3  190.65
 9.4636  35884.5  187.936
 9.6616  35083.2  186.603
 9.8596  33570.6  181.958
 10.0576  32157.2  178.743
 10.2556  30886.2  175.632
 10.4536  30188.4  173.233
 10.6516  29963.3  172.78
 10.8496  28522.3  168.006
 11.0476  28042.6  166.606
 11.2456  27590  165.788
 11.4436  27665.8  165.172
 11.6416  26648.2  162.472
 11.8396  25219.7  158.267
 12.0376  25227.5  157.93
 12.2356  24807.1  157.001
 12.4336  24700  156.212
 12.6316  24383.4  155.479
 12.8296  24614.3  155.846
 13.0276  25168.6  157.768
 13.2256  24965.5  157.506
 13.4236  25012.2  157.418
 13.6216  25076.7  157.641
 13.8196  24973.2  157.073
 14.0176  24573.3  156.1
 14.2156  23860.8  152.858
 14.4136  22733.3  150.583
 14.6116  22452.1  148.851
 14.8096  21913.5  147.047
 15.0076  20730.8  146.861
 15.2056  20405.1  141.485
 15.4036  19268.4  138.322
 15.6016  18935.4  136.197
 15.7996  18543  135.069
 15.9976  17788.1  135.274
 16.1956  17136  130.634
 16.3936  16836.5  128.659
 16.5916  16697.4  128.765
 16.7896  16638  128.592
 16.9876  16597.7  129.901
 17.1856  16288.5  127.018
 17.3836  15803.1  125.015
 17.5816  15548.7  124.504
 17.7796  15368.6  123.708
 17.9776  15227.1  123.958
 18.1756  15535.6  123.879
 18.3736  15372.1  123.74
 18.5716  14915.3  121.641
 18.7696  14824  120.835
 18.9676  14619.8  119.805
 19.1656  14516.9  119.935
 19.3636  14456  119.896
 19.5616  14289.5  119.384
 19.7596  14259.7  118.65
 19.9576  14966.8  121.615
 20.1556  14404.1  119.837
 20.3536  13929.6  117.22
 20.5516  13599.4  116.271
 20.7496  13570  116.082
 20.9476  13288.7  114.626
 21.1456  13413.6  115.493
 21.3436  13159.3  114.345
 21.5416  13089.1  114.044
 21.7396  13089.3  113.89
 21.9376  13051.6  113.484
 22.1356  13101.2  113.807
 22.3336  12980  113.585
 22.5316  12957.2  113.582
 22.7296  12888.1  112.634
 22.9276  12742.6  112.676
 23.1256  13134  113.863
 23.3236  12893.9  113.395
 23.5216  12781.7  112.556
 23.7196  12670.7  112.013
 23.9176  12542.7  111.199
 24.1156  12536  111.646
 24.3136  12130.4  110.604
 24.5116  12000.2  109.532
 24.7096  11831.1  108.574
 24.9076  11629.2  107.671
 25.1056  11233.8  106.287
 25.3036  11346.8  106.328
 25.5016  11232.7  105.832
 25.6996  11314.2  105.79
 25.8976  11280.8  106.074
 26.0956  11347.6  106.417
 26.2936  11222.4  105.45
 26.4916  11242.5  105.44
 26.6896  10964.5  104.425
 26.8876  10842.3  103.689
 27.0856  10812.3  103.607
 27.2836  10553.5  102.249
 27.4816  10501.4  101.925
 27.6796  10497.4  102.289
 27.8776  10446.7  101.899
 28.0756  10388.9  101.901
 28.2736  10399.6  101.532
 28.4716  10140.6  100.311
 28.6696  10146.9  100.183
 28.8676  9970.08  99.6527
 29.0656  9869.99  99.1371
 29.2636  9911.71  99.1332
 29.4616  9968.13  99.6012
 29.6596  9854.72  98.5913
 29.8576  9831.43  99.1734
 30.0556  9812.69  98.9569
 30.2536  9914.64  99.2567
 30.4516  9709.28  97.8917
 30.6496  9705.02  97.5924
 30.8476  9660.45  97.8167
 31.0456  9510.38  97.012
 31.2436  9483.79  96.1372
 31.4416  9370.98  95.7273
 31.6396  9304.04  95.431
 31.8376  9300.48  94.9593
 32.0356  9214.11  95.0828
 32.2336  9288  94.8496
 32.4316  9130.88  94.4513
 32.6296  9190.27  94.5924
 32.8276  9232.58  94.5809
 33.0256  9173  94.3583
 33.2236  9118.3  94.2242
 33.4216  9229.12  94.4805
 33.6196  9129.1  94.258
 33.8176  9040.98  93.9729
 34.0156  8926.44  92.9868
 34.2136  9018.55  93.508
 34.4116  8922.58  93.1638
 34.6096  8811.32  92.4561
 34.8076  8758.35  92.596
 35.0056  8762.47  92.3012
 35.2036  8642.24  91.8729
 35.4016  8656.97  91.8747
 35.5996  8569.06  91.4441
 35.7976  8525.42  91.4842
 35.9956  8665.29  91.8708
 36.1936  8535.16  91.0549
 36.3916  8516.56  91.1279
 36.5896  8401.01  91.4747
 36.7876  8476.37  91.2864
 36.9856  8279.49  90.2538
 37.1836  8420.97  90.1108
 37.3816  8408.73  90.4209
 37.5796  8312.46  91.6437
 37.7776  8176.78  89.2651
 37.9756  8224.47  89.405
 38.1736  8318.05  90.1167
 38.3716  8274.47  90.1585
 38.5696  8182.2  90.0145
 38.7676  8001.41  88.5189
 38.9656  8202.69  89.2555
 39.1636  8018.21  88.5176
 39.3616  8072.18  88.7383
 39.5596  7987.94  89.1357
 39.7576  7907.86  88.0633
 39.9556  8077.25  88.6355
 40.1536  8131.01  89.1355
 40.3516  8168.45  89.3525
 40.5496  8151.58  89.5173
 40.7476  8143.31  89.4806
 40.9456  8095.68  88.9655
 41.1436  8100.9  88.7169
 41.3416  8110.19  89.1012
 41.5396  7982.04  88.2055
 41.7376  8178.14  89.5467
 41.9356  7980.98  88.3254
 42.1336  7934.86  88.2175
 42.3316  8059.43  89.1062
 42.5296  7987  88.2158
 42.7276  7980.12  88.423
 42.9256  7891.8  87.7967
 43.1236  7895.14  87.9279
 43.3216  7860.31  87.4876
 43.5196  7853.54  87.5036
 43.7176  7751.13  87.3298
 43.9156  7760.57  87.2932
 44.1136  7755.41  86.8119
 44.3116  7699.86  86.5197
 44.5096  7805.57  87.4202
 44.7076  7556.21  85.9418
 44.9056  7713.21  86.7113
 45.1036  7561.6  85.4792
 45.3016  7417.63  85.1599
 45.4996  7509.65  85.6253
 45.6976  7328.95  84.7653
 45.8956  7525.23  85.6879
 46.0936  7438.41  85.1993
 46.2916  7580.61  85.9864
 46.4896  7452.17  85.2853
 46.6876  7407.17  85.7234
 46.8856  7362.98  84.7539
 47.0836  7285.28  84.5489
 47.2816  7144.78  83.6017
 47.4796  7236.25  84.2567
 47.6776  7117.69  84.5093
 47.8756  7134.13  83.7718
 48.0736  7156.56  84.3654
 48.2716  7074.69  83.6948
 48.4696  7091.24  83.3857
 48.6676  7096.13  83.9957
 48.8656  7097.54  83.7419
 49.0636  7106.13  83.7356
 49.2616  6959.23  82.9052
 49.4596  7002.43  82.717
 49.6576  6927.56  82.5053
 49.8556  6916.99  82.4613
 50.0536  6888.58  82.7403
 50.2516  6824.35  82.4848
 50.4496  6924.48  82.7351
 50.6476  6915.01  82.3677
 50.8456  6858.56  82.1197
 51.0436  6776.56  82.059
 51.2416  6710.98  81.3437
 51.4396  6612.96  81.1364
 51.6376  6582.64  80.7683
 51.8356  6799.76  81.7234
 52.0336  6578.31  80.9033
 52.2316  6611.04  81.4546
 52.4296  6669.65  81.5087
 52.6276  6592.73  81.1521
 52.8256  6644.01  81.0213
 53.0236  6468.08  80.5598
 53.2216  6500.62  80.8003
 53.4196  6454.1  80.4354
 53.6176  6378.14  80.4357
 53.8156  6465.21  80.6505
 54.0136  6516.49  81.163
 54.2116  6427.76  80.2644
 54.4096  6440.09  80.3792
 54.6076  6407.88  80.5413
 54.8056  6313.99  79.7346
 55.0036  6302.29  80.0553
 55.2016  6233.34  79.162
 55.3996  6294  79.5153
 55.5976  6340.63  79.997
 55.7956  6318.95  79.6755
 55.9936  6269.92  79.5036
 56.1916  6292.96  79.6589
 56.3896  6322.81  79.8415
 56.5876  6218.19  79.733
 56.7856  6232.72  79.2946
 56.9836  6186.56  78.7966
 57.1816  6177.87  79.1208
 57.3796  6221.09  79.1908
 57.5776  6267.57  79.4209
 57.7756  6162.3  79.3817
 57.9736  6209.15  79.3629
 58.1716  6191.14  79.4928
 58.3696  6272.34  79.7452
 58.5676  6295.44  79.3638
 58.7656  6207.17  79.489
 58.9636  6239.49  79.7296
 59.1616  6231.09  79.7942
 59.3596  6204.87  78.9065
 59.5576  6274.08  79.4029
 59.7556  6179.66  79.2263
 59.9536  6414.91  80.616
 60.1516  6380.36  81.2712
 60.1996  0.0000000E+00  0.0000000E+00

File: 17_Da_f00146.xye
# /beamlines/bl04/projects/cycle2025-II/20250340211-lsimonelli/DATA/IS17_D/17_Da_f00146.xye : mythproc.py merge -s 0.006 -l 0.5 -f /beamlines/bl04/inhouse/ff/FlatField/ff_20Nov2024rod8mm60s_17keV.raw -b True -c true -o xye /beamlines/bl04/projects/cycle2025-II/20250340211-lsimonelli/DATA/IS17_D/17_Da_00146.dat
# IsMon = [6741944, 6743541, 6748297]  IsPos = [-1.4999, -2.4883, -3.4988]
# Wave = 0.4962  CalPath /beamlines/bl04/projects/cycle2025-II/20250340211-lsimonelli/DATA/Align/Si_Pos1_25keV_f00001.cal
# Date = 2025-09-25_10:15:29 Dt = 4.8000  Bin = 0.0060  <imon> = 6744594 +/- 2698 (Min/Max) 6741944 / 6748297
# icurr 248.9559  mocoIn 1.6987E-05  mocoOut 0.7970  i15 7.06144e+06  imon 6.74459e+06  i7 5.0000  iEMpd_timer 4.8000  iEMpd_1 3.3310E-08  iEMpd_2 7.8299E-08  iEMpd_3 1.7770E-08  iEMpd_4 4.9021E-08  iEMhp_timer 4.8000  iEMhp_1 4.8656E-06  iEMhp_2 -2.5861E-08  iEMhp_3 -2.3505E-08  iEMhp_4 -2.2078E-08
#      9776
 1.7416  69803.4  264.331
 1.9396  45815  214.418
 2.1376  32345.2  180.163
 2.3356  28941  170.061
 2.5336  27143.2  165.274
 2.7316  25375  159.903
 2.9296  24404.4  156.979
 3.1276  23797  154.566
 3.3256  23673.7  153.849
 3.5236  25281.5  158.767
 3.7216  23447.3  154.127
 3.9196  22692.1  150.859
 4.1176  22798.4  150.984
 4.3156  23859.6  154.608
 4.5136  26245.3  161.153
 4.7116  27427.3  165.875
 4.9096  26674.2  163.022
 5.1076  26375.6  162.689
 5.3056  26862.4  163.897
 5.5036  26749.9  163.459
 5.7016  27368.3  165.301
 5.8996  27834.8  165.916
 6.0976  28531.6  169.437
 6.2956  29021.1  170.198
 6.4936  29469  170.695
 6.6916  30004.6  173.252
 6.8896  30586.6  174.781
 7.0876  31739.5  178.776
 7.2856  31703  177.728
 7.4836  32022.4  178.045
 7.6816  32790.4  180.613
 7.8796  34415.3  185.013
 8.0776  35851.4  189.813
 8.2756  37325.1  192.269
 8.4736  38150.1  194.202
 8.6716  37611.4  193.473
 8.8696  37745.4  194.305
 9.0676  37023.2  191.786
 9.2656  35809.9  189.311
 9.4636  35522.3  186.934
 9.6616  34749.7  185.667
 9.8596  33336.7  181.359
 10.0576  31640.6  177.355
 10.2556  30504.3  174.58
 10.4536  29750  172.007
 10.6516  29131.7  170.402
 10.8496  28195.6  167.03
 11.0476  27519.6  165.041
 11.2456  27040.5  164.144
 11.4436  27212.4  163.818
 11.6416  26382.8  161.665
 11.8396  25039.9  157.705
 12.0376  24894.9  156.87
 12.2356  24400  155.715
 12.4336  24356.3  155.119
 12.6316  23976  154.17
 12.8296  24396.5  155.155
 13.0276  24884.8  156.874
 13.2256  24888.9  157.264
 13.4236  24701.7  156.438
 13.6216  24506.3  155.84
 13.8196  24770.6  156.439
 14.0176  24320.1  155.289
 14.2156  23754.7  152.522
 14.4136  22502.8  149.824
 14.6116  22281.8  148.288
 14.8096  21647.4  146.134
 15.0076  20354.4  145.551
 15.2056  20022.6  140.145
 15.4036  19125.6  137.798
 15.6016  18854.5  135.901
 15.7996  18286.4  134.106
 15.9976  17626.2  134.63
 16.1956  17322.4  131.321
 16.3936  16704.1  128.131
 16.5916  16527.2  128.082
 16.7896  16485.2  127.982
 16.9876  16445.9  129.317
 17.1856  16116.2  126.38
 17.3836  15573.9  124.129
 17.5816  15296.4  123.517
 17.7796  15240.5  123.22
 17.9776  15091  123.393
 18.1756  15323.9  123.025
 18.3736  15037  122.397
 18.5716  14728.7  120.876
 18.7696  14848.9  120.938
 18.9676  14498.5  119.309
 19.1656  14339.9  119.215
 19.3636  14217.4  118.914
 19.5616  14248.9  119.212
 19.7596  14199.3  118.405
 19.9576  14652  120.328
 20.1556  14305.8  119.425
 20.3536  13673.2  116.134
 20.5516  13656.9  116.52
 20.7496  13297.6  114.913
 20.9476  13165.7  114.098
 21.1456  13256.7  114.817
 21.3436  13075.4  113.981
 21.5416  12989.8  113.603
 21.7396  12837  112.777
 21.9376  12826.7  112.497
 22.1356  12868.7  112.805
 22.3336  12707  112.393
 22.5316  12952.1  113.544
 22.7296  12743.7  111.993
 22.9276  12693.5  112.449
 23.1256  12976  113.162
 23.3236  12733.1  112.667
 23.5216  12593.2  111.701
 23.7196  12595.5  111.66
 23.9176  12418  110.633
 24.1156  12289.5  110.525
 24.3136  11842.6  109.305
 24.5116  11913.3  109.158
 24.7096  11520.4  107.162
 24.9076  11510.9  107.144
 25.1056  11222.3  106.254
 25.3036  11215.2  105.719
 25.5016  11277.3  106.044
 25.6996  11204.1  105.272
 25.8976  11126.2  105.351
 26.0956  11004.8  104.783
 26.2936  11071.1  104.753
 26.4916  11241.6  105.431
 26.6896  10762.3  103.458
 26.8876  10617.3  102.614
 27.0856  10762.8  103.36
 27.2836  10513.9  102.117
 27.4816  10403.2  101.449
 27.6796  10320.5  101.421
 27.8776  10284.5  101.108
 28.0756  10254.8  101.241
 28.2736  10219  100.648
 28.4716  9931.3  99.2715
 28.6696  10085.1  99.8787
 28.8676  9813.08  98.8731
 29.0656  9803.88  98.814
 29.2636  9819.5  98.6831
 29.4616  9868.8  99.0992
 29.6596  9705.86  97.8423
 29.8576  9587.29  97.9297
 30.0556  9641.55  98.0725
 30.2536  9751.89  98.4328
 30.4516  9597.27  97.3087
 30.6496  9545.77  96.7721
 30.8476  9440.44  96.6798
 31.0456  9366.95  96.2714
 31.2436  9430.81  95.863
 31.4416  9334.13  95.5588
 31.6396  9307.48  95.4699
 31.8376  9341.42  95.1913
 32.0356  9186.24  94.9606
 32.2336  9151.66  94.1673
 32.4316  9128.49  94.401
 32.6296  9035.33  93.8
 32.8276  9064.93  93.72
 33.0256  8890.03  92.8897
 33.2236  8956.8  93.3881
 33.4216  9009.25  93.3475
 33.6196  8951.74  93.3467
 33.8176  8858.91  93.0215
 34.0156  8857.76  92.6366
 34.2136  8807.39  92.4112
 34.4116  8724.46  92.2303
 34.6096  8749.72  92.1262
 34.8076  8463.44  91.0185
 35.0056  8526.96  91.0525
 35.2036  8575.84  91.5195
 35.4016  8592.39  91.5315
 35.5996  8570.54  91.4475
 35.7976  8392.09  90.7675
 35.9956  8532.27  91.164
 36.1936  8361.15  90.1143
 36.3916  8346.75  90.1712
 36.5896  8311.54  91.007
 36.7876  8480.61  91.3101
 36.9856  8225.7  89.9511
 37.1836  8268.1  89.2862
 37.3816  8302.13  89.8287
 37.5796  8118.93  90.568
 37.7776  8130.17  88.9955
 37.9756  8050.27  88.4465
 38.1736  8306.43  90.037
 38.3716  8113.26  89.2602
 38.5696  7994.47  88.9799
 38.7676  7902.53  87.9871
 38.9656  7945.17  87.862
 39.1636  7736.44  86.9601
 39.3616  7942.61  88.0385
 39.5596  7806.73  88.1236
 39.7576  7775.59  87.3188
 39.9556  7950.98  87.9447
 40.1536  7995.59  88.3875
 40.3516  8112.04  89.0378
 40.5496  8123.89  89.3748
 40.7476  8031.74  88.8587
 40.9456  8094.49  88.954
 41.1436  8049.67  88.4393
 41.3416  7982.21  88.3622
 41.5396  7912.07  87.7547
 41.7376  8079.17  89.0048
 41.9356  7941.57  88.1064
 42.1336  7910.91  88.0877
 42.3316  7858.42  87.9839
 42.5296  7846.01  87.4367
 42.7276  7839.89  87.6408
 42.9256  7866.62  87.6589
 43.1236  7844.71  87.645
 43.3216  7828.82  87.3046
 43.5196  7708.08  86.6961
 43.7176  7773.48  87.4565
 43.9156  7511.68  85.8695
 44.1136  7607.07  85.9736
 44.3116  7655.15  86.248
 44.5096  7486.73  85.6084
 44.7076  7514.1  85.6975
 44.9056  7387.03  84.8431
 45.1036  7508.08  85.1591
 45.3016  7338.58  84.6922
 45.4996  7588.55  86.0593
 45.6976  7288.25  84.5087
 45.8956  7386.95  84.9169
 46.0936  7403.87  84.9623
 46.2916  7335.06  84.5986
 46.4896  7463.47  85.3668
 46.6876  7226.78  84.7106
 46.8856  7226.18  83.958
 47.0836  7208.04  84.1028
 47.2816  7130.8  83.534
 47.4796  7197  84.0309
 47.6776  7037.32  84.0272
 47.8756  7127.32  83.7367
 48.0736  7207.85  84.662
 48.2716  6948.48  82.9783
 48.4696  7059  83.2216
 48.6676  6973.12  83.2734
 48.8656  7107.34  83.7964
 49.0636  7047  83.3782
 49.2616  6937.38  82.6544
 49.4596  6776.06  81.528
 49.6576  6845.24  82.0149
 49.8556  6855.56  82.0944
 50.0536  6795.33  82.1692
 50.2516  6882.23  82.8261
 50.4496  6826.55  82.1549
 50.6476  6849.66  81.9762
 50.8456  6685.64  81.082
 51.0436  6552.74  80.6912
 51.2416  6661.02  81.0276
 51.4396  6440.56  80.0646
 51.6376  6559.21  80.6317
 51.8356  6678.76  80.997
 52.0336  6463.63  80.1834
 52.2316  6450.53  80.4441
 52.4296  6531.52  80.6304
 52.6276  6477.12  80.4182
 52.8256  6446.33  79.7939
 53.0236  6385.37  80.0622
 53.2216  6365.8  79.9714
 53.4196  6356.06  79.8391
 53.6176  6229.34  79.509
 53.8156  6409.65  80.3176
 54.0136  6339.45  80.0403
 54.2116  6286.29  79.3772
 54.4096  6358.79  79.8798
 54.6076  6202.34  79.2382
 54.8056  6250.68  79.335
 55.0036  6280.83  79.9127
 55.2016  6267  79.3763
 55.3996  6211.11  78.9896
 55.5976  6217.72  79.2199
 55.7956  6185.06  78.8223
 55.9936  6213.57  79.1398
 56.1916  6281.48  79.5892
 56.3896  6217.17  79.1737
 56.5876  6044.36  78.6111
 56.7856  6115.67  78.5589
 56.9836  6145.34  78.5337
 57.1816  6182.04  79.1529
 57.3796  6191.47  79.0077
 57.5776  6172.12  78.8053
 57.7756  6098.18  78.9722
 57.9736  6143.42  78.9419
 58.1716  6126.06  79.06
 58.3696  6083.84  78.5441
 58.5676  6137.62  78.3699
 58.7656  6169.77  79.2435
 58.9636  6266.98  79.9015
 59.1616  6213.83  79.6743
 59.3596  6202.05  78.855
 59.5576  6330.42  79.7246
 59.7556  6189.16  79.2534
 59.9536  6319.64  79.9811
 60.1516  6199.16  80.0747
 60.1996  0.0000000E+00  0.0000000E+00