Folder: echemistpy/docs/examples/opeando_xrd/IS17_D/Data/IS17_D (part 115)

File: 17_Db_f00140.xye
# /beamlines/bl04/projects/cycle2025-II/20250340211-lsimonelli/DATA/IS17_D/17_Db_f00140.xye : mythproc.py merge -s 0.006 -l 0.5 -f /beamlines/bl04/inhouse/ff/FlatField/ff_20Nov2024rod8mm60s_17keV.raw -b True -c true -o xye /beamlines/bl04/projects/cycle2025-II/20250340211-lsimonelli/DATA/IS17_D/17_Db_00140.dat
# IsMon = [6767402, 6768545, 6770882]  IsPos = [-1.4999, -2.4884, -3.4988]
# Wave = 0.4962  CalPath /beamlines/bl04/projects/cycle2025-II/20250340211-lsimonelli/DATA/Align/Si_Pos1_25keV_f00001.cal
# Date = 2025-09-25_08:44:20 Dt = 4.8000  Bin = 0.0060  <imon> = 6768943 +/- 1448 (Min/Max) 6767402 / 6770882
# icurr 251.4777  mocoIn 1.7160E-05  mocoOut 0.8046  i15 7.09348e+06  imon 6.76894e+06  i7 6.3333  iEMpd_timer 4.8000  iEMpd_1 3.5325E-08  iEMpd_2 7.7504E-08  iEMpd_3 1.8711E-08  iEMpd_4 4.7423E-08  iEMhp_timer 4.8000  iEMhp_1 4.9132E-06  iEMhp_2 -2.7292E-08  iEMhp_3 -2.3899E-08  iEMhp_4 -2.3062E-08
#      9776
 1.7416  70211.7  265.081
 1.9396  48463.3  220.521
 2.1376  35337.8  188.297
 2.3356  31937.2  178.632
 2.5336  30061  173.916
 2.7316  26874  164.549
 2.9296  25649.4  160.898
 3.1276  25374.8  159.589
 3.3256  24675.4  157.033
 3.5236  26309.8  161.946
 3.7216  24060.9  156.12
 3.9196  23688.3  154.108
 4.1176  23406.3  152.981
 4.3156  24323.5  156.111
 4.5136  27075.9  163.679
 4.7116  27732  166.788
 4.9096  27190.9  164.578
 5.1076  26628.2  163.458
 5.3056  27033.8  164.41
 5.5036  26756  163.48
 5.7016  27245.4  164.929
 5.8996  27882.4  166.07
 6.0976  28868  170.403
 6.2956  28786.7  169.504
 6.4936  29418.2  170.546
 6.6916  29754.8  172.512
 6.8896  30667.7  174.974
 7.0876  31664.9  178.563
 7.2856  31311.4  176.605
 7.4836  32035.9  177.983
 7.6816  33016.1  181.2
 7.8796  33611.4  182.829
 8.0776  35830.9  189.77
 8.2756  37007.3  191.468
 8.4736  37443.3  192.405
 8.6716  36895.6  191.623
 8.8696  37968.5  194.899
 9.0676  36927.2  191.527
 9.2656  35968.7  189.734
 9.4636  35046.4  185.721
 9.6616  34219.8  184.248
 9.8596  33562.7  181.935
 10.0576  31289.5  176.337
 10.2556  30998.5  175.972
 10.4536  31156.5  176.008
 10.6516  31750.8  177.893
 10.8496  28070.2  166.667
 11.0476  27439.1  164.797
 11.2456  28014.2  167.076
 11.4436  27062.2  163.365
 11.6416  26272.5  161.308
 11.8396  25197.8  158.179
 12.0376  24492.2  155.592
 12.2356  24846.4  157.137
 12.4336  24514.6  155.622
 12.6316  24212  154.927
 12.8296  24125.8  154.259
 13.0276  24548.1  155.813
 13.2256  24616.6  156.393
 13.4236  24705.4  156.451
 13.6216  24796.9  156.735
 13.8196  27264.7  163.806
 14.0176  24003.8  154.283
 14.2156  23570.2  151.917
 14.4136  22369.6  149.381
 14.6116  22034.9  147.453
 14.8096  21220.8  144.684
 15.0076  20377.5  145.685
 15.2056  19415.8  138.005
 15.4036  18456.3  135.382
 15.6016  18139  133.301
 15.7996  17694  131.926
 15.9976  17391.6  133.676
 16.1956  17062.8  130.301
 16.3936  16839.1  128.639
 16.5916  16558.2  128.195
 16.7896  16522.6  128.122
 16.9876  16381.8  129.042
 17.1856  16165.2  126.564
 17.3836  15688.8  124.594
 17.5816  15467.2  124.185
 17.7796  15366.3  123.712
 17.9776  15179.9  123.735
 18.1756  15416.4  123.422
 18.3736  15225.3  123.148
 18.5716  14616.1  120.414
 18.7696  14776.8  120.618
 18.9676  14459.3  119.126
 19.1656  14070.7  118.097
 19.3636  14062.2  118.258
 19.5616  14057.8  118.403
 19.7596  14329.7  118.947
 19.9576  14742.4  120.687
 20.1556  13962.6  117.981
 20.3536  13767.9  116.535
 20.5516  13427.6  115.525
 20.7496  13202.7  114.497
 20.9476  13184.3  114.18
 21.1456  13219.5  114.65
 21.3436  13011.9  113.705
 21.5416  12916.4  113.297
 21.7396  12754.9  112.427
 21.9376  12703.2  111.965
 22.1356  12836.3  112.679
 22.3336  12596  111.904
 22.5316  12561  111.837
 22.7296  12379.6  110.397
 22.9276  12323.6  110.812
 23.1256  12644.8  111.717
 23.3236  12622.3  112.197
 23.5216  12823.4  112.715
 23.7196  12644.9  111.889
 23.9176  12473.5  110.873
 24.1156  12371.2  110.878
 24.3136  12082.9  110.395
 24.5116  12106.8  110.011
 24.7096  11920.4  108.985
 24.9076  11635.3  107.712
 25.1056  11427.5  107.211
 25.3036  11118.5  105.245
 25.5016  11221.3  105.775
 25.6996  11170.7  105.12
 25.8976  11287.5  106.102
 26.0956  11045.8  104.971
 26.2936  11106.8  104.919
 26.4916  11151.6  104.985
 26.6896  10829  103.771
 26.8876  10729.9  103.151
 27.0856  10611.6  102.632
 27.2836  10499.7  101.976
 27.4816  10452.4  101.687
 27.6796  10392.6  101.767
 27.8776  10636.6  102.817
 28.0756  10218.6  101.055
 28.2736  10166.9  100.378
 28.4716  10033.2  99.7733
 28.6696  10088.5  99.8938
 28.8676  9912.24  99.3681
 29.0656  9753.82  98.5477
 29.2636  9776.49  98.4578
 29.4616  9480.24  97.1319
 29.6596  9615.48  97.3899
 29.8576  9373.39  96.8333
 30.0556  9388.64  96.7882
 30.2536  9476.84  97.0401
 30.4516  9686.24  97.7478
 30.6496  9696.98  97.533
 30.8476  9496.16  96.9548
 31.0456  9482.06  96.852
 31.2436  9479.26  96.1036
 31.4416  9363.39  95.7026
 31.6396  9591.27  96.9053
 31.8376  9534.82  96.1549
 32.0356  9349.89  95.777
 32.2336  9383.95  95.3494
 32.4316  9020.34  93.8746
 32.6296  9059.75  93.9184
 32.8276  8982.92  93.3068
 33.0256  8965.01  93.2773
 33.2236  9108.1  94.1695
 33.4216  8968.91  93.1256
 33.6196  8816.51  92.6263
 33.8176  8903.86  93.2554
 34.0156  8727.14  91.9515
 34.2136  8823.35  92.4872
 34.4116  8640.67  91.6836
 34.6096  8721.03  91.9865
 34.8076  8459.98  91.0117
 35.0056  8654.88  91.7215
 35.2036  8827.93  92.8666
 35.4016  8480.9  90.9293
 35.5996  8508.59  91.1114
 35.7976  8361.24  90.6015
 35.9956  8673.28  91.9141
 36.1936  8479.07  90.7203
 36.3916  8421.36  90.6199
 36.5896  8471.78  91.8858
 36.7876  8101.27  89.2474
 36.9856  7959.17  88.4847
 37.1836  8107.13  88.4167
 37.3816  8031.67  88.3637
 37.5796  8120.35  90.5742
 37.7776  8344.42  90.1692
 37.9756  8251.83  89.5517
 38.1736  8305.78  90.0313
 38.3716  8263.11  90.0728
 38.5696  8075.58  89.4211
 38.7676  8040.64  88.7475
 38.9656  8148.27  88.9649
 39.1636  7991.99  88.3833
 39.3616  8087.91  88.8398
 39.5596  7896.34  88.6111
 39.7576  7907.05  88.0628
 39.9556  8037.97  88.4239
 40.1536  8052.53  88.6941
 40.3516  8163.14  89.3105
 40.5496  8075.04  89.0862
 40.7476  8070.15  89.0618
 40.9456  8142.01  89.2188
 41.1436  8058.49  88.48
 41.3416  7856.79  87.6987
 41.5396  7914.49  87.8243
 41.7376  8025.71  88.7111
 41.9356  7928.51  88.0221
 42.1336  8122.39  89.2456
 42.3316  7923.24  88.3385
 42.5296  7966.77  88.0932
 42.7276  7912.02  88.0415
 42.9256  7913.49  87.9168
 43.1236  7899.05  87.9386
 43.3216  7926.52  87.8447
 43.5196  7802.05  87.2114
 43.7176  7785.85  87.5167
 43.9156  7537.66  86.0303
 44.1136  7603.51  85.9565
 44.3116  7722.62  86.6372
 44.5096  7579.97  86.1462
 44.7076  7644.41  86.4396
 44.9056  7720.44  86.7388
 45.1036  7639.42  85.9019
 45.3016  7638.12  86.3972
 45.4996  7502.48  85.5707
 45.6976  7521.36  85.8542
 45.8956  7652.75  86.4208
 46.0936  7655.46  86.4451
 46.2916  7617.53  86.2059
 46.4896  7775.38  87.1237
 46.6876  7531.09  86.4642
 46.8856  7523.05  85.6688
 47.0836  7407.92  85.2605
 47.2816  7410.65  85.1547
 47.4796  7491.84  85.7262
 47.6776  7374.5  86.0045
 47.8756  7479.22  85.7764
 48.0736  7488.33  86.2945
 48.2716  7398.62  85.5868
 48.4696  7563.05  86.1141
 48.6676  7435.3  85.9769
 48.8656  7545.87  86.3397
 49.0636  7504.12  86.0467
 49.2616  7370.72  85.3186
 49.4596  7359.03  84.8023
 49.6576  7344.89  84.9635
 49.8556  7375.34  85.1498
 50.0536  7349.81  85.4578
 50.2516  7314.87  85.3884
 50.4496  7348.59  85.2309
 50.6476  7334.01  84.8185
 50.8456  7311.82  84.7726
 51.0436  7180.07  84.4675
 51.2416  6980.87  82.9579
 51.4396  7000.2  83.4823
 51.6376  7125.47  84.045
 51.8356  7058.54  83.2668
 52.0336  7059.75  83.7952
 52.2316  6886.32  83.1147
 52.4296  7010.97  83.5615
 52.6276  6991.3  83.5469
 52.8256  7098.48  83.7459
 53.0236  7114.41  84.502
 53.2216  7009.07  83.9094
 53.4196  7040.63  83.9951
 53.6176  7067.18  84.673
 53.8156  7023.79  84.0759
 54.0136  6728.29  82.4539
 54.2116  6837.3  82.7537
 54.4096  6660.14  81.7379
 54.6076  6671.03  82.1522
 54.8056  6572.35  81.3307
 55.0036  6572.98  81.7413
 55.2016  6680.15  81.91
 55.3996  6484.52  80.6968
 55.5976  6539.07  81.229
 55.7956  6571.71  81.2426
 55.9936  6567.39  81.317
 56.1916  6495.79  80.9251
 56.3896  6346.26  79.9669
 56.5876  6380.35  80.7388
 56.7856  6333.91  79.9504
 56.9836  6441.07  80.3969
 57.1816  6539.26  81.3819
 57.3796  6313.31  79.7703
 57.5776  6361.24  79.9541
 57.7756  6276.09  80.1002
 57.9736  6237.4  79.5142
 58.1716  6202.56  79.5545
 58.3696  6109.04  78.7122
 58.5676  6229.84  78.9409
 58.7656  6025.66  78.3171
 58.9636  5975.25  78.0109
 59.1616  5939.12  77.9164
 59.3596  6098.55  78.2045
 59.5576  5964.88  77.3988
 59.7556  5861.95  77.1401
 59.9536  5942.26  77.5664
 60.1516  5985.36  78.6921
 60.1996  0.0000000E+00  0.0000000E+00

File: 17_Db_f00141.xye
# /beamlines/bl04/projects/cycle2025-II/20250340211-lsimonelli/DATA/IS17_D/17_Db_f00141.xye : mythproc.py merge -s 0.006 -l 0.5 -f /beamlines/bl04/inhouse/ff/FlatField/ff_20Nov2024rod8mm60s_17keV.raw -b True -c true -o xye /beamlines/bl04/projects/cycle2025-II/20250340211-lsimonelli/DATA/IS17_D/17_Db_00141.dat
# IsMon = [6777735, 6778160, 6781229]  IsPos = [-1.5000, -2.4884, -3.4988]
# Wave = 0.4962  CalPath /beamlines/bl04/projects/cycle2025-II/20250340211-lsimonelli/DATA/Align/Si_Pos1_25keV_f00001.cal
# Date = 2025-09-25_09:00:53 Dt = 4.8000  Bin = 0.0060  <imon> = 6779041 +/- 1557 (Min/Max) 6777735 / 6781229
# icurr 252.3076  mocoIn 1.7211E-05  mocoOut 0.8077  i15 7.10161e+06  imon 6.77904e+06  i7 4.3333  iEMpd_timer 4.8000  iEMpd_1 3.5341E-08  iEMpd_2 7.7931E-08  iEMpd_3 1.9001E-08  iEMpd_4 4.7941E-08  iEMhp_timer 4.8000  iEMhp_1 4.9283E-06  iEMhp_2 -2.6863E-08  iEMhp_3 -2.3322E-08  iEMhp_4 -2.0531E-08
#      9776
 1.7416  70307.2  265.257
 1.9396  48935.1  221.59
 2.1376  35657.4  189.143
 2.3356  31906.1  178.542
 2.5336  29719.9  172.923
 2.7316  27217.4  165.599
 2.9296  25902.9  161.709
 3.1276  25568  160.197
 3.3256  24752.2  157.279
 3.5236  26319.8  161.984
 3.7216  24169.3  156.473
 3.9196  23964.7  154.985
 4.1176  23746.6  154.091
 4.3156  24535  156.784
 4.5136  27002.6  163.458
 4.7116  28047.9  167.736
 4.9096  27195.2  164.598
 5.1076  27028.3  164.677
 5.3056  27028  164.39
 5.5036  27023.1  164.294
 5.7016  27522.1  165.762
 5.8996  27953.6  166.283
 6.0976  28997.1  170.792
 6.2956  29109.4  170.451
 6.4936  29765.2  171.55
 6.6916  29920.4  172.989
 6.8896  30875.1  175.574
 7.0876  32144.3  179.82
 7.2856  31640  177.533
 7.4836  32176.4  178.379
 7.6816  32756.9  180.493
 7.8796  33696.8  183.063
 8.0776  35897.8  189.95
 8.2756  37099.3  191.706
 8.4736  37712.2  193.098
 8.6716  37072.1  192.08
 8.8696  37980.4  194.925
 9.0676  37065.9  191.882
 9.2656  35936.3  189.634
 9.4636  34930.1  185.411
 9.6616  34453.4  184.872
 9.8596  33757.4  182.462
 10.0576  31719.2  177.537
 10.2556  31180.2  176.491
 10.4536  31018.4  175.614
 10.6516  31367.1  176.822
 10.8496  28327.2  167.424
 11.0476  27565.4  165.177
 11.2456  27742.2  166.263
 11.4436  27275.8  164.009
 11.6416  26378.5  161.626
 11.8396  25352.5  158.666
 12.0376  24515.4  155.652
 12.2356  24429.7  155.808
 12.4336  24402.4  155.263
 12.6316  24132.3  154.674
 12.8296  24370.4  155.035
 13.0276  24760.6  156.487
 13.2256  24662.6  156.541
 13.4236  24862.4  156.946
 13.6216  24890.8  157.036
 13.8196  27154.4  163.487
 14.0176  24047.2  154.424
 14.2156  23805.8  152.66
 14.4136  22381  149.412
 14.6116  22108.8  147.701
 14.8096  21378.6  145.215
 15.0076  20387.2  145.715
 15.2056  19671.9  138.915
 15.4036  18538  135.681
 15.6016  18127.7  133.261
 15.7996  17640.4  131.725
 15.9976  17377.9  133.635
 16.1956  17240.1  130.964
 16.3936  16781.9  128.415
 16.5916  16670.1  128.627
 16.7896  16794.7  129.173
 16.9876  16386.3  129.066
 17.1856  16264  126.95
 17.3836  15676.4  124.545
 17.5816  15443.4  124.094
 17.7796  15525  124.356
 17.9776  15192.4  123.796
 18.1756  15318.6  123.033
 18.3736  15106.2  122.666
 18.5716  14693.6  120.731
 18.7696  14710.3  120.359
 18.9676  14451.3  119.091
 19.1656  14211.6  118.688
 19.3636  14216.3  118.907
 19.5616  14106.8  118.613
 19.7596  14250.6  118.617
 19.9576  14720.5  120.606
 20.1556  13895.2  117.685
 20.3536  13681.6  116.166
 20.5516  13440.9  115.582
 20.7496  13246.8  114.598
 20.9476  13411.8  115.154
 21.1456  13276.2  114.898
 21.3436  12947.2  113.412
 21.5416  12788.8  112.736
 21.7396  12813.2  112.683
 21.9376  12735.3  112.111
 22.1356  13089.4  113.941
 22.3336  12578.4  111.827
 22.5316  12449.8  111.341
 22.7296  12632.5  111.521
 22.9276  12428.9  111.275
 23.1256  12614  111.583
 23.3236  12826.1  113.098
 23.5216  12812.2  112.666
 23.7196  12733.6  112.498
 23.9176  12590.5  111.387
 24.1156  12330.3  110.686
 24.3136  12145.2  110.686
 24.5116  12147.4  110.204
 24.7096  11785.7  108.365
 24.9076  11836.1  108.635
 25.1056  11516.3  107.618
 25.3036  11244  105.844
 25.5016  11169  105.531
 25.6996  11189.1  105.202
 25.8976  11235.6  105.859
 26.0956  11102  105.234
 26.2936  11111.3  104.943
 26.4916  11226.4  105.338
 26.6896  10858.4  103.909
 26.8876  10812.4  103.534
 27.0856  10638.8  102.766
 27.2836  10451.8  101.75
 27.4816  10488.5  101.867
 27.6796  10274.9  101.178
 27.8776  10669.6  102.966
 28.0756  10222.3  101.075
 28.2736  10226.1  100.675
 28.4716  10129.1  100.254
 28.6696  10050.1  99.6942
 28.8676  9910.37  99.3608
 29.0656  9872.88  99.1478
 29.2636  9831.22  98.7352
 29.4616  9330.65  96.3603
 29.6596  9651.68  97.5739
 29.8576  9419.58  97.0732
 30.0556  9368.8  96.6837
 30.2536  9370.38  96.4942
 30.4516  9651.64  97.5652
 30.6496  9647.58  97.2718
 30.8476  9683.79  97.912
 31.0456  9651.55  97.7116
 31.2436  9542.98  96.416
 31.4416  9460.29  96.1878
 31.6396  9584.76  96.8648
 31.8376  9460.93  95.7557
 32.0356  9471.02  96.3951
 32.2336  9346.35  95.1587
 32.4316  9069.91  94.1396
 32.6296  9056.52  93.9041
 32.8276  9090.2  93.8572
 33.0256  9016.79  93.5401
 33.2236  9223.79  94.7619
 33.4216  8962.73  93.0934
 33.6196  8973.66  93.4502
 33.8176  8950  93.4869
 34.0156  8817.36  92.4235
 34.2136  8906.58  92.9122
 34.4116  8650.55  91.737
 34.6096  8744.41  92.1105
 34.8076  8621.25  91.875
 35.0056  8674.27  91.8136
 35.2036  8861.12  93.0376
 35.4016  8449.25  90.7595
 35.5996  8525.55  91.2053
 35.7976  8567.24  91.6999
 35.9956  8646.28  91.7712
 36.1936  8708.87  91.9444
 36.3916  8422.13  90.6236
 36.5896  8472.41  91.8922
 36.7876  8148.23  89.5063
 36.9856  8036.26  88.9153
 37.1836  8092.61  88.3378
 37.3816  8189.97  89.2291
 37.5796  8123.25  90.5936
 37.7776  8320.21  90.0388
 37.9756  8276.54  89.6789
 38.1736  8247.55  89.7157
 38.3716  8211.28  89.7919
 38.5696  8018.82  89.1106
 38.7676  8032.75  88.7055
 38.9656  7920.9  87.7128
 39.1636  8003.35  88.4436
 39.3616  7998.59  88.3505
 39.5596  7901.44  88.6421
 39.7576  7875.53  87.8861
 39.9556  8007.57  88.2574
 40.1536  8098.15  88.9451
 40.3516  8114.35  89.05
 40.5496  8028.29  88.8325
 40.7476  8106.37  89.2639
 40.9456  8068.01  88.8129
 41.1436  8120.37  88.8232
 41.3416  7984.79  88.4077
 41.5396  7929.93  87.9096
 41.7376  7983.42  88.4675
 41.9356  7918.08  87.9611
 42.1336  8088.58  89.0532
 42.3316  7925.84  88.3493
 42.5296  7984.08  88.197
 42.7276  7997.86  88.5189
 42.9256  8030.7  88.5689
 43.1236  7819.15  87.4981
 43.3216  7996.93  88.2315
 43.5196  7814.73  87.2855
 43.7176  7762.14  87.3779
 43.9156  7620.76  86.5026
 44.1136  7540.47  85.6009
 44.3116  7641.71  86.1833
 44.5096  7524.21  85.826
 44.7076  7590.92  86.1391
 44.9056  7826.49  87.3318
 45.1036  7648.23  85.9533
 45.3016  7701.53  86.7493
 45.4996  7602.67  86.1356
 45.6976  7485.53  85.6475
 45.8956  7733.28  86.8721
 46.0936  7650.63  86.1557
 46.2916  7673.43  86.5202
 46.4896  7647.02  86.4091
 46.6876  7572.53  86.6979
 46.8856  7486.54  85.455
 47.0836  7518.64  85.8982
 47.2816  7360.49  84.8642
 47.4796  7589.55  86.2763
 47.6776  7387.33  86.084
 47.8756  7508.58  85.9492
 48.0736  7499.06  86.3583
 48.2716  7438.59  85.8217
 48.4696  7612.88  86.3938
 48.6676  7503.82  86.3748
 48.8656  7535.8  86.276
 49.0636  7540.13  86.2476
 49.2616  7348.9  85.188
 49.4596  7328.39  84.6278
 49.6576  7328.57  84.8612
 49.8556  7422.1  85.4191
 50.0536  7412.23  85.8182
 50.2516  7347.81  85.5771
 50.4496  7373.65  85.3822
 50.6476  7397.81  85.1843
 50.8456  7285.13  84.6372
 51.0436  7086.13  83.9139
 51.2416  7070.93  83.4914
 51.4396  7038.63  83.7116
 51.6376  7118.89  84.0064
 51.8356  7142.33  83.7538
 52.0336  7115.81  84.126
 52.2316  7044.22  84.064
 52.4296  6990.06  83.433
 52.6276  6926.28  83.1639
 52.8256  7143.58  83.9994
 53.0236  7015.98  83.9118
 53.2216  6987.16  83.7551
 53.4196  7058.35  84.1081
 53.6176  7006.17  84.307
 53.8156  6957.35  83.682
 54.0136  6726.48  82.4401
 54.2116  6807.16  82.5608
 54.4096  6708.92  82.0433
 54.6076  6657.88  82.0827
 54.8056  6585.14  81.407
 55.0036  6737.02  82.6024
 55.2016  6578.74  81.2041
 55.3996  6450.55  80.486
 55.5976  6550.57  81.2986
 55.7956  6554.08  81.122
 55.9936  6704.68  82.1782
 56.1916  6566.19  81.3712
 56.3896  6297.19  79.6558
 56.5876  6361.25  80.6344
 56.7856  6341.29  79.9938
 56.9836  6454.87  80.4788
 57.1816  6541.41  81.3832
 57.3796  6414.3  80.4068
 57.5776  6404.63  80.2459
 57.7756  6233.51  79.8241
 57.9736  6297.72  79.8926
 58.1716  6129.09  79.0846
 58.3696  6004.43  78.0381
 58.5676  6084.5  78.0232
 58.7656  6090.52  78.74
 58.9636  6054.23  78.5283
 59.1616  6080.06  78.8363
 59.3596  5954.59  77.2696
 59.5576  5980.58  77.4992
 59.7556  5911.94  77.4669
 59.9536  6187.82  79.1515
 60.1516  5934.92  78.3584
 60.1996  0.0000000E+00  0.0000000E+00