Folder: echemistpy/docs/examples/opeando_xrd/IS17_D/Data/IS17_D (part 58)

File: 17_Da_f00148.xye
# /beamlines/bl04/projects/cycle2025-II/20250340211-lsimonelli/DATA/IS17_D/17_Da_f00148.xye : mythproc.py merge -s 0.006 -l 0.5 -f /beamlines/bl04/inhouse/ff/FlatField/ff_20Nov2024rod8mm60s_17keV.raw -b True -c true -o xye /beamlines/bl04/projects/cycle2025-II/20250340211-lsimonelli/DATA/IS17_D/17_Da_00148.dat
# IsMon = [6757301, 6761173, 6764335]  IsPos = [-1.4999, -2.4883, -3.4989]
# Wave = 0.4962  CalPath /beamlines/bl04/projects/cycle2025-II/20250340211-lsimonelli/DATA/Align/Si_Pos1_25keV_f00001.cal
# Date = 2025-09-25_10:48:35 Dt = 4.8000  Bin = 0.0060  <imon> = 6760936 +/- 2876 (Min/Max) 6757301 / 6764335
# icurr 250.6432  mocoIn 1.7089E-05  mocoOut 0.8021  i15 7.07955e+06  imon 6.76094e+06  i7 5.3333  iEMpd_timer 4.8000  iEMpd_1 3.3768E-08  iEMpd_2 7.8026E-08  iEMpd_3 1.6918E-08  iEMpd_4 4.7514E-08  iEMhp_timer 4.8000  iEMhp_1 4.8952E-06  iEMhp_2 -2.5019E-08  iEMhp_3 -2.4178E-08  iEMhp_4 -2.1204E-08
#      9776
 1.7416  70663.5  265.974
 1.9396  46077.7  215.058
 2.1376  32726.5  181.235
 2.3356  29258.7  171.004
 2.5336  27137.2  165.268
 2.7316  25461.5  160.169
 2.9296  24339.9  156.77
 3.1276  23883.1  154.847
 3.3256  23784.6  154.208
 3.5236  25647.3  159.908
 3.7216  23519.3  154.363
 3.9196  22907.8  151.575
 4.1176  22638.5  150.46
 4.3156  24121.2  155.454
 4.5136  26558.3  162.107
 4.7116  27506.2  166.112
 4.9096  26880.9  163.653
 5.1076  26517.6  163.128
 5.3056  27119  164.679
 5.5036  26947.1  164.055
 5.7016  27656.3  166.171
 5.8996  28000.3  166.41
 6.0976  28853.9  170.39
 6.2956  29133.7  170.528
 6.4936  29723.2  171.441
 6.6916  30108.1  173.551
 6.8896  30898.9  175.674
 7.0876  31737.8  178.773
 7.2856  31643.7  177.563
 7.4836  32153.6  178.405
 7.6816  33053.4  181.334
 7.8796  34567.6  185.41
 8.0776  35850.9  189.808
 8.2756  37756.4  193.376
 8.4736  38445.7  194.946
 8.6716  37920.7  194.258
 8.8696  37731.3  194.273
 9.0676  37083.4  191.952
 9.2656  36089.4  190.049
 9.4636  35623.2  187.196
 9.6616  34857.5  185.958
 9.8596  33439.9  181.637
 10.0576  31863.1  177.966
 10.2556  30728.4  175.21
 10.4536  29833.4  172.246
 10.6516  29268.4  170.791
 10.8496  28345.2  167.477
 11.0476  27572.3  165.204
 11.2456  27139.6  164.438
 11.4436  27492.1  164.658
 11.6416  26744.4  162.766
 11.8396  25029.6  157.675
 12.0376  25274.1  158.061
 12.2356  24434.6  155.825
 12.4336  24366.6  155.152
 12.6316  24190.8  154.868
 12.8296  24348.7  155
 13.0276  25059.7  157.421
 13.2256  25046.5  157.756
 13.4236  24890.8  157.032
 13.6216  24641.7  156.274
 13.8196  24727.4  156.301
 14.0176  24244  154.956
 14.2156  23801.6  152.67
 14.4136  22567.5  150.036
 14.6116  22449.7  148.843
 14.8096  21997.5  147.316
 15.0076  20552.3  146.233
 15.2056  20378.5  141.378
 15.4036  19493.5  139.114
 15.6016  18909.7  136.093
 15.7996  18537.4  135.024
 15.9976  17723.2  135.607
 16.1956  17081.7  130.411
 16.3936  16786.4  128.452
 16.5916  16653.3  128.575
 16.7896  16593.6  128.408
 16.9876  16434.5  129.266
 17.1856  16166.2  126.571
 17.3836  15819.6  125.106
 17.5816  15340.1  123.69
 17.7796  15167.6  122.924
 17.9776  15094.3  123.409
 18.1756  15379.2  123.249
 18.3736  15055.3  122.467
 18.5716  14921.3  121.666
 18.7696  14872.3  121.034
 18.9676  14400.7  118.91
 19.1656  14362.3  119.299
 19.3636  14349.7  119.461
 19.5616  14163.6  118.852
 19.7596  14363  119.095
 19.9576  14782  120.86
 20.1556  14239.4  119.147
 20.3536  14000.3  117.519
 20.5516  13591  116.238
 20.7496  13454.8  115.59
 20.9476  13258.2  114.496
 21.1456  13487.9  115.808
 21.3436  13123.2  114.19
 21.5416  13144.5  114.282
 21.7396  13000.9  113.494
 21.9376  13013.3  113.311
 22.1356  12917.5  113.025
 22.3336  12831  112.935
 22.5316  12924.9  113.428
 22.7296  12804.2  112.256
 22.9276  12624.4  112.136
 23.1256  12999.5  113.263
 23.3236  12855.3  113.213
 23.5216  12753.1  112.412
 23.7196  12577.6  111.573
 23.9176  12542  111.185
 24.1156  12559.7  111.74
 24.3136  11974.6  109.913
 24.5116  11932.4  109.244
 24.7096  11728.5  108.124
 24.9076  11466.9  106.94
 25.1056  11125.7  105.795
 25.3036  11261.8  105.935
 25.5016  11136.6  105.379
 25.6996  11174.9  105.137
 25.8976  11072.9  105.104
 26.0956  11232.2  105.862
 26.2936  11246.8  105.575
 26.4916  11174.8  105.121
 26.6896  10870.6  103.976
 26.8876  10658.2  102.812
 27.0856  10741  103.248
 27.2836  10526.6  102.174
 27.4816  10433.7  101.594
 27.6796  10412.2  101.874
 27.8776  10375.7  101.556
 28.0756  10415.2  102.027
 28.2736  10288.4  100.989
 28.4716  10054.9  99.8876
 28.6696  10113  100.012
 28.8676  9937.36  99.4986
 29.0656  9896.3  99.2762
 29.2636  9849.62  98.8334
 29.4616  9777.67  98.637
 29.6596  9883.55  98.7305
 29.8576  9805.39  99.0339
 30.0556  9713.67  98.443
 30.2536  9839.15  98.8696
 30.4516  9672.52  97.6932
 30.6496  9684.72  97.4778
 30.8476  9637.14  97.6818
 31.0456  9530.04  97.1116
 31.2436  9340.1  95.4052
 31.4416  9295.75  95.3564
 31.6396  9348.14  95.6766
 31.8376  9348.53  95.2208
 32.0356  9467.73  96.4034
 32.2336  9179.39  94.3139
 32.4316  9216.36  94.8541
 32.6296  9135.65  94.3152
 32.8276  9114.22  93.9807
 33.0256  9005.41  93.4927
 33.2236  9046.54  93.8561
 33.4216  9014.99  93.3736
 33.6196  9080.43  94.0112
 33.8176  8983.85  93.6734
 34.0156  8950.24  93.1119
 34.2136  8889.86  92.8446
 34.4116  8725.9  92.2396
 34.6096  8797.97  92.3853
 34.8076  8667.01  92.1066
 35.0056  8699.34  91.9669
 35.2036  8576.75  91.5222
 35.4016  8576.58  91.4471
 35.5996  8612.92  91.675
 35.7976  8520.33  91.4555
 35.9956  8474.57  90.8631
 36.1936  8470.35  90.702
 36.3916  8464.04  90.8032
 36.5896  8383.12  91.3965
 36.7876  8374.89  90.7361
 36.9856  8262.34  90.1536
 37.1836  8327.65  89.6041
 37.3816  8383.62  90.2698
 37.5796  8204.13  91.0402
 37.7776  8197.98  89.3816
 37.9756  8118.41  88.8175
 38.1736  8205.42  89.4941
 38.3716  8174.58  89.6009
 38.5696  8099.59  89.565
 38.7676  7868.63  87.7995
 38.9656  7956.8  87.9253
 39.1636  7936.24  88.0826
 39.3616  8001.35  88.3657
 39.5596  7818.66  88.1915
 39.7576  7855.63  87.7681
 39.9556  8054.59  88.5075
 40.1536  8122.22  89.085
 40.3516  8160.56  89.3107
 40.5496  8054.15  88.9889
 40.7476  8183.89  89.6991
 40.9456  8159.18  89.3167
 41.1436  8084.34  88.6309
 41.3416  8010.21  88.5173
 41.5396  7995.34  88.2143
 41.7376  8054.9  88.876
 41.9356  7864.69  87.679
 42.1336  7937.14  88.2344
 42.3316  7860.05  87.9941
 42.5296  7939.99  87.9538
 42.7276  7969.46  88.3644
 42.9256  7930.27  88.0165
 43.1236  7803.55  87.4173
 43.3216  7869.84  87.5351
 43.5196  7689.44  86.5958
 43.7176  7827.96  87.7636
 43.9156  7655.21  86.6883
 44.1136  7684.55  86.4053
 44.3116  7757.59  86.8243
 44.5096  7553.61  85.9893
 44.7076  7677.28  86.6206
 44.9056  7596.8  86.0396
 45.1036  7545.47  85.379
 45.3016  7439.56  85.2743
 45.4996  7500.78  85.5639
 45.6976  7277.09  84.4472
 45.8956  7456.92  85.3156
 46.0936  7365.51  84.7402
 46.2916  7419.32  85.0772
 46.4896  7447.45  85.2731
 46.6876  7376.27  85.5786
 46.8856  7228.64  83.9723
 47.0836  7202.96  84.0701
 47.2816  7191.52  83.8841
 47.4796  7139.77  83.6975
 47.6776  7099.77  84.3911
 47.8756  7102.02  83.5858
 48.0736  7152.09  84.3367
 48.2716  7005.04  83.3124
 48.4696  7117.87  83.5693
 48.6676  7011.59  83.5011
 48.8656  7087.56  83.6853
 49.0636  7025.21  83.2664
 49.2616  6930.24  82.6146
 49.4596  6859.35  82.0161
 49.6576  6916.68  82.4466
 49.8556  6969.3  82.7734
 50.0536  6938.59  83.037
 50.2516  6864.04  82.7256
 50.4496  6772.22  81.8226
 50.6476  6884  82.1825
 50.8456  6841.14  82.0139
 51.0436  6627.27  81.1462
 51.2416  6679.58  81.1377
 51.4396  6496.24  80.4139
 51.6376  6612.3  80.9568
 51.8356  6595.66  80.4868
 52.0336  6431.96  79.9886
 52.2316  6502.85  80.775
 52.4296  6609.31  81.1173
 52.6276  6565.8  80.9636
 52.8256  6645.53  81.011
 53.0236  6361.17  79.9091
 53.2216  6421.55  80.3213
 53.4196  6339.6  79.732
 53.6176  6308.34  80.0107
 53.8156  6345.37  79.9129
 54.0136  6343.67  80.0632
 54.2116  6332.99  79.6729
 54.4096  6373.86  79.9777
 54.6076  6335.06  80.0802
 54.8056  6212.77  79.094
 55.0036  6236.95  79.6397
 55.2016  6266.77  79.4246
 55.3996  6258.65  79.2884
 55.5976  6197.1  79.0879
 55.7956  6282.56  79.4415
 55.9936  6187.83  78.9818
 56.1916  6320.15  79.8429
 56.3896  6231.25  79.2643
 56.5876  6202.79  79.6349
 56.7856  6209.86  79.1522
 56.9836  6072.59  78.0726
 57.1816  6254.22  79.5131
 57.3796  6261.51  79.4551
 57.5776  6207.21  79.0397
 57.7756  6165.39  79.3974
 57.9736  6166.75  79.0918
 58.1716  6209.18  79.6031
 58.3696  6115.98  78.7533
 58.5676  6233.29  78.9677
 58.7656  6203.71  79.4606
 58.9636  6262.3  79.8687
 59.1616  6205.13  79.6265
 59.3596  6305.48  79.5117
 59.5576  6198.39  78.8907
 59.7556  6130.38  78.878
 59.9536  6367.31  80.284
 60.1516  6329.82  80.9161
 60.1996  6224.44  83.4326

File: 17_Da_f00149.xye
# /beamlines/bl04/projects/cycle2025-II/20250340211-lsimonelli/DATA/IS17_D/17_Da_f00149.xye : mythproc.py merge -s 0.006 -l 0.5 -f /beamlines/bl04/inhouse/ff/FlatField/ff_20Nov2024rod8mm60s_17keV.raw -b True -c true -o xye /beamlines/bl04/projects/cycle2025-II/20250340211-lsimonelli/DATA/IS17_D/17_Da_00149.dat
# IsMon = [6763656, 6773769, 6766836]  IsPos = [-1.4999, -2.4883, -3.4988]
# Wave = 0.4962  CalPath /beamlines/bl04/projects/cycle2025-II/20250340211-lsimonelli/DATA/Align/Si_Pos1_25keV_f00001.cal
# Date = 2025-09-25_11:05:08 Dt = 4.8000  Bin = 0.0060  <imon> = 6768087 +/- 4222 (Min/Max) 6763656 / 6773769
# icurr 251.3966  mocoIn 1.7152E-05  mocoOut 0.8042  i15 7.0872e+06  imon 6.76809e+06  i7 6.6667  iEMpd_timer 4.8000  iEMpd_1 3.3476E-08  iEMpd_2 7.8035E-08  iEMpd_3 1.7234E-08  iEMpd_4 4.7312E-08  iEMhp_timer 4.8000  iEMhp_1 4.9111E-06  iEMhp_2 -2.5454E-08  iEMhp_3 -2.3702E-08  iEMhp_4 -2.0222E-08
#      9776
 1.7416  70228.7  265.17
 1.9396  46497.5  216.039
 2.1376  32936.6  181.827
 2.3356  29260.2  171.018
 2.5336  27058.8  165.038
 2.7316  25444.9  160.091
 2.9296  24608.8  157.604
 3.1276  24061  155.406
 3.3256  23851  154.396
 3.5236  25731.2  160.131
 3.7216  23480.9  154.237
 3.9196  22949.2  151.711
 4.1176  23174.3  152.23
 4.3156  24286.6  155.999
 4.5136  26630.1  162.31
 4.7116  27659.1  166.576
 4.9096  26911.2  163.743
 5.1076  26646.1  163.526
 5.3056  27124.2  164.707
 5.5036  27042.1  164.331
 5.7016  27558.7  165.878
 5.8996  28362.7  167.477
 6.0976  28823.8  170.308
 6.2956  29317.6  171.065
 6.4936  29841.4  171.778
 6.6916  30069.9  173.443
 6.8896  30818.8  175.446
 7.0876  32132.7  179.882
 7.2856  31821.7  178.062
 7.4836  32499.8  179.34
 7.6816  33146.5  181.591
 7.8796  34501.3  185.231
 8.0776  36301.6  190.988
 8.2756  38250.4  194.649
 8.4736  38550.6  195.209
 8.6716  37917.2  194.219
 8.8696  37742  194.346
 9.0676  36976.3  191.712
 9.2656  36235.4  190.472
 9.4636  35819.7  187.767
 9.6616  34944.1  186.24
 9.8596  33482  181.721
 10.0576  31772.6  177.669
 10.2556  30587  174.784
 10.4536  29922.4  172.473
 10.6516  29118.1  170.338
 10.8496  28489.5  167.915
 11.0476  27486.2  164.944
 11.2456  27165.5  164.495
 11.4436  27399.4  164.377
 11.6416  26795.5  162.92
 11.8396  25225.2  158.292
 12.0376  25105.4  157.546
 12.2356  24525.1  156.096
 12.4336  24627.2  155.978
 12.6316  24331.5  155.318
 12.8296  24612.4  155.838
 13.0276  25036.7  157.349
 13.2256  25101.2  157.932
 13.4236  24763.9  156.633
 13.6216  24801  156.779
 13.8196  24648.9  156.053
 14.0176  24586.6  156.14
 14.2156  23848.1  152.819
 14.4136  22763.6  150.688
 14.6116  22296.8  148.336
 14.8096  21758  146.526
 15.0076  20715.4  146.808
 15.2056  20260.8  140.967
 15.4036  19162.7  137.919
 15.6016  19169.6  137.023
 15.7996  18472.5  134.801
 15.9976  17733.7  135.042
 16.1956  16982.5  130.058
 16.3936  16939.4  129.062
 16.5916  16629.5  128.508
 16.7896  16756.6  129.058
 16.9876  16525.9  129.62
 17.1856  16265  126.923
 17.3836  15853.5  125.214
 17.5816  15652.7  124.924
 17.7796  15322.9  123.529
 17.9776  15265.2  124.112
 18.1756  15263.7  122.784
 18.3736  15149.3  122.834
 18.5716  14846.1  121.359
 18.7696  14881.2  121.067
 18.9676  14583.8  119.663
 19.1656  14459.3  119.707
 19.3636  14381.5  119.585
 19.5616  14299.4  119.417
 19.7596  14334.6  118.976
 19.9576  14840.6  121.103
 20.1556  14451.1  120.027
 20.3536  13952.9  117.316
 20.5516  13628.9  116.393
 20.7496  13554.8  116.018
 20.9476  13263.8  114.527
 21.1456  13523.4  115.961
 21.3436  13161.3  114.356
 21.5416  13096.4  114.065
 21.7396  12992.4  113.467
 21.9376  13006.8  113.298
 22.1356  12978.6  113.277
 22.3336  12939.8  113.392
 22.5316  12924.6  113.417
 22.7296  12961.3  112.946
 22.9276  12987.1  113.743
 23.1256  13137.6  113.876
 23.3236  12831  113.129
 23.5216  12823.8  112.753
 23.7196  12588.9  111.653
 23.9176  12652.5  111.699
 24.1156  12473.5  111.378
 24.3136  12015.7  110.078
 24.5116  11939.5  109.258
 24.7096  11658.1  107.781
 24.9076  11537.5  107.259
 25.1056  11258.3  106.404
 25.3036  11358.3  106.372
 25.5016  11188.1  105.623
 25.6996  11384.7  106.12
 25.8976  11178.7  105.604
 26.0956  11327.5  106.321
 26.2936  11124.6  104.99
 26.4916  11245.2  105.454
 26.6896  10764.5  103.47
 26.8876  10879.3  103.875
 27.0856  10833.9  103.703
 27.2836  10593.9  102.492
 27.4816  10554.9  102.178
 27.6796  10444.8  102.031
 27.8776  10309.7  101.237
 28.0756  10406.9  101.98
 28.2736  10358.2  101.33
 28.4716  10158.9  100.402
 28.6696  10029.8  99.6006
 28.8676  10056.6  100.09
 29.0656  9881.65  99.2143
 29.2636  9940.4  99.279
 29.4616  9736.86  98.4279
 29.6596  10003.6  99.3253
 29.8576  9701.63  98.5049
 30.0556  9743.99  98.5982
 30.2536  9907.19  99.2071
 30.4516  9746.93  98.0888
 30.6496  9661.39  97.3821
 30.8476  9504.75  97.0333
 31.0456  9459.49  96.7636
 31.2436  9513.48  96.2991
 31.4416  9335.01  95.5352
 31.6396  9383.66  95.8395
 31.8376  9435.71  95.6465
 32.0356  9287.33  95.46
 32.2336  9288.06  94.862
 32.4316  9112.69  94.3198
 32.6296  9088.57  94.0625
 32.8276  9190.24  94.3681
 33.0256  9099.99  93.9869
 33.2236  9118.7  94.2349
 33.4216  9211.11  94.3856
 33.6196  8980.29  93.4836
 33.8176  8962.55  93.5631
 34.0156  8896.28  92.8273
 34.2136  8847.51  92.6238
 34.4116  8841.79  92.8553
 34.6096  8734.59  92.0569
 34.8076  8729.06  92.4323
 35.0056  8740.29  92.1834
 35.2036  8692.86  92.1474
 35.4016  8587.07  91.5006
 35.5996  8534.48  91.2559
 35.7976  8541.28  91.5761
 35.9956  8632.55  91.6956
 36.1936  8515.1  90.9421
 36.3916  8465.84  90.8131
 36.5896  8420.92  91.5973
 36.7876  8437.34  91.0712
 36.9856  8404.97  90.9235
 37.1836  8273.99  89.3123
 37.3816  8364.46  90.174
 37.5796  8293.08  91.5376
 37.7776  8217.45  89.4932
 37.9756  8121.64  88.858
 38.1736  8288.94  89.9599
 38.3716  8034.2  88.8452
 38.5696  8144.16  89.8096
 38.7676  7863.82  87.7499
 38.9656  8145.77  88.9459
 39.1636  7953.35  88.1586
 39.3616  8135.39  89.078
 39.5596  7859.54  88.4238
 39.7576  7977.43  88.4475
 39.9556  8085.94  88.6816
 40.1536  8036.9  88.6237
 40.3516  8165.63  89.336
 40.5496  8121.04  89.3383
 40.7476  8125.49  89.3801
 40.9456  8168.33  89.3636
 41.1436  8148.67  88.9835
 41.3416  8034.28  88.6579
 41.5396  8001.87  88.2385
 41.7376  7923.99  88.1478
 41.9356  7907.04  87.9114
 42.1336  7970.72  88.4231
 42.3316  7938.45  88.4315
 42.5296  8010.2  88.3411
 42.7276  7951.37  88.263
 42.9256  7959.16  88.1685
 43.1236  7854.83  87.7032
 43.3216  7877.87  87.5864
 43.5196  7713.89  86.7248
 43.7176  7867.99  87.9879
 43.9156  7630.14  86.5458
 44.1136  7631.16  86.1034
 44.3116  7700.95  86.5146
 44.5096  7672.47  86.6592
 44.7076  7636.41  86.387
 44.9056  7502.33  85.5248
 45.1036  7649.59  85.9835
 45.3016  7523.65  85.774
 45.4996  7435.58  85.2091
 45.6976  7301  84.6073
 45.8956  7444.78  85.2284
 46.0936  7595.54  86.0382
 46.2916  7430.25  85.127
 46.4896  7479.84  85.4469
 46.6876  7362.75  85.4864
 46.8856  7260.81  84.1559
 47.0836  7296.37  84.6275
 47.2816  7211.52  83.9955
 47.4796  7219.75  84.1532
 47.6776  7086.96  84.318
 47.8756  7137.79  83.7966
 48.0736  7177.77  84.4966
 48.2716  7026.68  83.4463
 48.4696  7146.55  83.7299
 48.6676  7139.27  84.2592
 48.8656  6951.2  82.8733
 49.0636  6976.09  82.971
 49.2616  6957.99  82.7824
 49.4596  6888.52  82.1768
 49.6576  6943  82.5965
 49.8556  7025.84  83.1083
 50.0536  6858.42  82.5555
 50.2516  6921.15  83.0703
 50.4496  6823.31  82.1235
 50.6476  6854.43  82.0048
 50.8456  6843.31  82.0275
 51.0436  6685.41  81.4994
 51.2416  6703.85  81.293
 51.4396  6508.69  80.4693
 51.6376  6684.92  81.3829
 51.8356  6672.31  80.943
 52.0336  6462.58  80.196
 52.2316  6606.94  81.4322
 52.4296  6541.14  80.7129
 52.6276  6542.97  80.8542
 52.8256  6544.23  80.423
 53.0236  6347.28  79.8106
 53.2216  6375.32  80.0206
 53.4196  6259.82  79.2138
 53.6176  6391.72  80.5179
 53.8156  6355.28  79.9643
 54.0136  6459.07  80.8015
 54.2116  6361.35  79.8528
 54.4096  6415.97  80.2281
 54.6076  6320.7  79.9912
 54.8056  6243.86  79.2914
 55.0036  6244.02  79.6842
 55.2016  6340.85  79.8483
 55.3996  6347.28  79.8486
 55.5976  6290.39  79.6808
 55.7956  6341.27  79.8152
 55.9936  6220.28  79.1864
 56.1916  6210.63  79.142
 56.3896  6325.33  79.8564
 56.5876  6148.95  79.282
 56.7856  6119.98  78.5821
 56.9836  6187.08  78.8064
 57.1816  6207.65  79.315
 57.3796  6194.08  79.0126
 57.5776  6227.95  79.1682
 57.7756  6078.33  78.8476
 57.9736  6148.83  78.9719
 58.1716  6109.91  78.9691
 58.3696  6095.15  78.6007
 58.5676  6177.4  78.6011
 58.7656  6249.04  79.7476
 58.9636  6131.18  79.0258
 59.1616  6094.87  78.9166
 59.3596  6288.3  79.4299
 59.5576  6233.51  79.1411
 59.7556  6215.37  79.4502
 59.9536  6302.56  79.9022
 60.1516  6364.14  81.163
 60.1996  0.0000000E+00  0.0000000E+00