Folder: echemistpy/docs/examples/opeando_xrd/IS17_D/Data/IS17_D (part 42)

File: 17_Da_f00109.xye
# /beamlines/bl04/projects/cycle2025-II/20250340211-lsimonelli/DATA/IS17_D/17_Da_f00109.xye : mythproc.py merge -s 0.006 -l 0.5 -f /beamlines/bl04/inhouse/ff/FlatField/ff_20Nov2024rod8mm60s_17keV.raw -b True -c true -o xye /beamlines/bl04/projects/cycle2025-II/20250340211-lsimonelli/DATA/IS17_D/17_Da_00109.dat
# IsMon = [6791277, 6792510, 6792223]  IsPos = [-1.4999, -2.4884, -3.4988]
# Wave = 0.4962  CalPath /beamlines/bl04/projects/cycle2025-II/20250340211-lsimonelli/DATA/Align/Si_Pos1_25keV_f00001.cal
# Date = 2025-09-24_23:57:35 Dt = 4.8000  Bin = 0.0060  <imon> = 6792003 +/- 527 (Min/Max) 6791277 / 6792510
# icurr 253.0950  mocoIn 1.7262E-05  mocoOut 0.8096  i15 7.11235e+06  imon 6.792e+06  i7 6.0000  iEMpd_timer 4.8000  iEMpd_1 3.4722E-08  iEMpd_2 7.8463E-08  iEMpd_3 1.9059E-08  iEMpd_4 4.8561E-08  iEMhp_timer 4.8000  iEMhp_1 4.9446E-06  iEMhp_2 -2.5594E-08  iEMhp_3 -2.5739E-08  iEMhp_4 -2.2215E-08
#      9776
 1.7416  72002.4  268.424
 1.9396  47596.6  218.524
 2.1376  34549.1  186.173
 2.3356  31077.3  176.201
 2.5336  29108  171.126
 2.7316  28054  168.107
 2.9296  26789.9  164.451
 3.1276  25944.1  161.366
 3.3256  25478  159.564
 3.5236  26868.2  163.657
 3.7216  24327.2  156.991
 3.9196  23781.1  154.435
 4.1176  23738  154.063
 4.3156  24986.9  158.228
 4.5136  27330.2  164.445
 4.7116  28230.7  168.29
 4.9096  27765.4  166.321
 5.1076  27286.3  165.468
 5.3056  27886.9  167.004
 5.5036  27414.7  165.47
 5.7016  27843.2  166.729
 5.8996  28182.4  166.946
 6.0976  29225.4  171.474
 6.2956  29476.7  171.537
 6.4936  30274.6  173.02
 6.6916  30652.8  175.114
 6.8896  31668.7  177.85
 7.0876  32809  181.764
 7.2856  32664.1  180.403
 7.4836  32987.4  180.618
 7.6816  34055.4  184.061
 7.8796  35034.6  186.676
 8.0776  36717.6  192.107
 8.2756  38680.2  195.753
 8.4736  39149.5  196.74
 8.6716  38643  196.111
 8.8696  38429.7  196.062
 9.0676  37398  192.766
 9.2656  36414.8  190.911
 9.4636  35952.7  188.074
 9.6616  35001.7  186.366
 9.8596  33651.3  182.189
 10.0576  32071.2  178.534
 10.2556  30747  175.248
 10.4536  29632.5  171.644
 10.6516  28731.4  169.198
 10.8496  27907.4  166.182
 11.0476  27325  164.462
 11.2456  26328.1  161.964
 11.4436  26349.5  161.199
 11.6416  28006.5  166.565
 11.8396  25320.2  158.581
 12.0376  25415.9  158.514
 12.2356  24860.8  157.182
 12.4336  24740  156.339
 12.6316  24262.4  155.09
 12.8296  24564.4  155.688
 13.0276  25249.2  158.028
 13.2256  25592.6  159.466
 13.4236  25376.7  158.555
 13.6216  25139.5  157.834
 13.8196  25147.1  157.621
 14.0176  24696  156.487
 14.2156  24145.3  153.772
 14.4136  23189.9  152.094
 14.6116  22851.5  150.171
 14.8096  22314.3  148.378
 15.0076  20910.5  147.497
 15.2056  20643.7  142.312
 15.4036  19614.4  139.564
 15.6016  19180.6  137.076
 15.7996  18771.5  135.893
 15.9976  17954.9  135.889
 16.1956  17313.5  131.295
 16.3936  17022.7  129.35
 16.5916  16774.4  129.045
 16.7896  16647.6  128.616
 16.9876  16649.2  130.098
 17.1856  16598.8  128.243
 17.3836  15927.9  125.525
 17.5816  15709.4  125.158
 17.7796  15186.4  122.982
 17.9776  14957.9  122.85
 18.1756  15144.8  122.303
 18.3736  14821.2  121.509
 18.5716  14604.6  120.369
 18.7696  14679.6  120.244
 18.9676  14398  118.893
 19.1656  14261.5  118.881
 19.3636  14339.4  119.418
 19.5616  14275.9  119.325
 19.7596  14249.4  118.617
 19.9576  14206.6  118.484
 20.1556  15118.7  122.774
 20.3536  14662.4  120.257
 20.5516  14082.1  118.314
 20.7496  13599.1  116.21
 20.9476  13496.4  115.521
 21.1456  13616.8  116.368
 21.3436  13410.7  115.434
 21.5416  13307.4  114.994
 21.7396  13214.9  114.432
 21.9376  13084.9  113.63
 22.1356  13176.9  114.153
 22.3336  13049.2  113.898
 22.5316  13124.7  114.31
 22.7296  13050.7  113.349
 22.9276  12933.4  113.522
 23.1256  13134.4  113.86
 23.3236  13079.3  114.199
 23.5216  13254.4  114.608
 23.7196  12779  112.476
 23.9176  12825.4  112.43
 24.1156  12649.9  112.14
 24.3136  12236.7  111.092
 24.5116  12058.6  109.807
 24.7096  11808.1  108.478
 24.9076  11773.4  108.34
 25.1056  11313.2  106.671
 25.3036  11434.8  106.742
 25.5016  11326.9  106.276
 25.6996  11284.3  105.654
 25.8976  11149.4  105.458
 26.0956  11266.3  106.03
 26.2936  11237.7  105.53
 26.4916  11291.3  105.665
 26.6896  10980.5  104.503
 26.8876  10893.6  103.94
 27.0856  10833.1  103.702
 27.2836  10656.4  102.746
 27.4816  10648.8  102.635
 27.6796  10488.7  102.242
 27.8776  10414.3  101.742
 28.0756  10316.4  101.545
 28.2736  10219  100.647
 28.4716  10132.4  100.271
 28.6696  10174.5  100.321
 28.8676  10033.4  99.9747
 29.0656  9992.36  99.7474
 29.2636  9977.78  99.4661
 29.4616  9792.32  98.7215
 29.6596  9812.22  98.3842
 29.8576  9834.68  99.1908
 30.0556  9757.82  98.6791
 30.2536  9855.43  98.9585
 30.4516  9697.33  97.8205
 30.6496  9779.66  97.9539
 30.8476  9651.28  97.7587
 31.0456  9674.85  97.8379
 31.2436  9706.7  97.2552
 31.4416  9533.42  96.5552
 31.6396  9534.92  96.6161
 31.8376  9400.5  95.479
 32.0356  9329.75  95.6752
 32.2336  9338.67  95.1142
 32.4316  9277.14  95.2062
 32.6296  9164.87  94.4672
 32.8276  9313.8  94.9961
 33.0256  9114.64  94.0593
 33.2236  9136.56  94.3197
 33.4216  9143.08  94.0368
 33.6196  9253.46  94.9023
 33.8176  9089.16  94.2138
 34.0156  9070.86  93.7346
 34.2136  8993.77  93.3796
 34.4116  8826.67  92.6603
 34.6096  8824.89  92.5264
 34.8076  8755.05  92.5682
 35.0056  8818.38  92.5957
 35.2036  8841.44  92.9318
 35.4016  8893.12  93.1221
 35.5996  8752.97  92.4209
 35.7976  8701.21  92.4206
 35.9956  8661.78  91.859
 36.1936  8575.19  91.2656
 36.3916  8530.42  91.1944
 36.5896  8505.55  92.0506
 36.7876  8454.81  91.179
 36.9856  8411.72  90.9731
 37.1836  8350.29  89.7331
 37.3816  8386.12  90.2946
 37.5796  8347.83  91.8311
 37.7776  8291.68  89.8822
 37.9756  8267.88  89.6332
 38.1736  8294.47  89.9707
 38.3716  8388.21  90.766
 38.5696  8186.67  90.0464
 38.7676  7938.51  88.1773
 38.9656  8083.64  88.6129
 39.1636  8038.89  88.6337
 39.3616  8121.51  89.0189
 39.5596  7943.52  88.8853
 39.7576  7983.89  88.4863
 39.9556  8057.79  88.5282
 40.1536  8173.45  89.3693
 40.3516  8257.75  89.835
 40.5496  8185.1  89.6976
 40.7476  8182.34  89.6956
 40.9456  8296.68  90.0595
 41.1436  8118.01  88.81
 41.3416  8143.49  89.2864
 41.5396  8084.59  88.7731
 41.7376  8122.07  89.243
 41.9356  8095.12  88.9541
 42.1336  8113.75  89.2018
 42.3316  8044.76  89.0255
 42.5296  8013.14  88.3538
 42.7276  8076.2  88.9538
 42.9256  8008.21  88.4472
 43.1236  7823.83  87.53
 43.3216  7957.64  88.0221
 43.5196  7870.3  87.5985
 43.7176  7796.95  87.5897
 43.9156  7813.32  87.5897
 44.1136  7715  86.5861
 44.3116  7713.25  86.5907
 44.5096  7738.01  87.0423
 44.7076  7823.61  87.4507
 44.9056  7550.99  85.7849
 45.1036  7587.91  85.6182
 45.3016  7600.5  86.1948
 45.4996  7442.97  85.2352
 45.6976  7348.05  84.8641
 45.8956  7533.01  85.7414
 46.0936  7530.35  85.7282
 46.2916  7505.48  85.5664
 46.4896  7531.8  85.7539
 46.6876  7376.5  85.5711
 46.8856  7282.86  84.2807
 47.0836  7342.16  84.8845
 47.2816  7178.8  83.8124
 47.4796  7352.65  84.9224
 47.6776  7192.04  84.9393
 47.8756  7244.48  84.4208
 48.0736  7221.1  84.7409
 48.2716  7094.82  83.8112
 48.4696  7216.64  84.1207
 48.6676  7018.64  83.5379
 48.8656  7192.7  84.3006
 49.0636  7101.36  83.7101
 49.2616  6975.79  82.9986
 49.4596  7022.89  82.8438
 49.6576  7111.9  83.5957
 49.8556  6998.64  82.9474
 50.0536  6957.42  83.1432
 50.2516  7013.78  83.6169
 50.4496  6833  82.1915
 50.6476  6934.47  82.4821
 50.8456  6912.94  82.4424
 51.0436  6763.16  81.9831
 51.2416  6807.68  81.9261
 51.4396  6597.38  81.0418
 51.6376  6803.25  82.1211
 51.8356  6677.29  80.9846
 52.0336  6579.17  80.901
 52.2316  6611.07  81.4488
 52.4296  6678.96  81.5554
 52.6276  6598.73  81.1647
 52.8256  6626.65  80.9087
 53.0236  6504.9  80.7978
 53.2216  6438.66  80.4218
 53.4196  6480.26  80.5976
 53.6176  6373.74  80.4147
 53.8156  6355.86  79.9732
 54.0136  6431.53  80.6257
 54.2116  6459.06  80.4548
 54.4096  6456.78  80.4963
 54.6076  6396.72  80.4709
 54.8056  6349.72  79.9608
 55.0036  6358.45  80.4081
 55.2016  6390.39  80.1521
 55.3996  6423  80.3265
 55.5976  6382.86  80.2555
 55.7956  6322.69  79.6974
 55.9936  6318.77  79.8075
 56.1916  6313.29  79.7954
 56.3896  6369.23  80.1405
 56.5876  6228.05  79.7987
 56.7856  6252.93  79.4383
 56.9836  6249.56  79.2035
 57.1816  6223.59  79.4157
 57.3796  6313.12  79.7766
 57.5776  6324.35  79.7783
 57.7756  6262.39  80.0328
 57.9736  6252.85  79.6344
 58.1716  6318.58  80.3011
 58.3696  6267.58  79.7256
 58.5676  6308.28  79.4514
 58.7656  6214.66  79.5403
 58.9636  6335.64  80.3438
 59.1616  6309.5  80.2951
 59.3596  6320.39  79.6243
 59.5576  6286.91  79.4707
 59.7556  6297.73  79.9662
 59.9536  6484.83  81.0406
 60.1516  6297.05  80.7253
 60.1996  0.0000000E+00  0.0000000E+00

File: 17_Da_f00110.xye
# /beamlines/bl04/projects/cycle2025-II/20250340211-lsimonelli/DATA/IS17_D/17_Da_f00110.xye : mythproc.py merge -s 0.006 -l 0.5 -f /beamlines/bl04/inhouse/ff/FlatField/ff_20Nov2024rod8mm60s_17keV.raw -b True -c true -o xye /beamlines/bl04/projects/cycle2025-II/20250340211-lsimonelli/DATA/IS17_D/17_Da_00110.dat
# IsMon = [6747337, 6748070, 6751350]  IsPos = [-1.4999, -2.4883, -3.4988]
# Wave = 0.4962  CalPath /beamlines/bl04/projects/cycle2025-II/20250340211-lsimonelli/DATA/Align/Si_Pos1_25keV_f00001.cal
# Date = 2025-09-25_00:14:08 Dt = 4.8000  Bin = 0.0060  <imon> = 6748919 +/- 1745 (Min/Max) 6747337 / 6751350
# icurr 249.2115  mocoIn 1.7004E-05  mocoOut 0.7982  i15 7.06879e+06  imon 6.74892e+06  i7 4.0000  iEMpd_timer 4.8000  iEMpd_1 3.4405E-08  iEMpd_2 7.8205E-08  iEMpd_3 1.6975E-08  iEMpd_4 4.7042E-08  iEMhp_timer 4.8000  iEMhp_1 4.8705E-06  iEMhp_2 -2.5736E-08  iEMhp_3 -2.3983E-08  iEMhp_4 -2.2249E-08
#      9776
 1.7416  70947.9  266.468
 1.9396  46954.9  217.058
 2.1376  34129.8  185.051
 2.3356  30670.8  175.055
 2.5336  28760.7  170.113
 2.7316  27416.8  166.201
 2.9296  26474.6  163.494
 3.1276  25591.6  160.276
 3.3256  25152.6  158.574
 3.5236  26686.4  163.117
 3.7216  24405  157.242
 3.9196  23564.3  153.73
 4.1176  23472.1  153.2
 4.3156  24679.4  157.242
 4.5136  26902.1  163.156
 4.7116  28053.3  167.761
 4.9096  27287.1  164.885
 5.1076  27085  164.858
 5.3056  27339.9  165.347
 5.5036  27106.3  164.542
 5.7016  27302.9  165.103
 5.8996  28017.4  166.463
 6.0976  28718.1  169.978
 6.2956  29281.1  170.962
 6.4936  29963.8  172.128
 6.6916  30358.4  174.272
 6.8896  31275.4  176.733
 7.0876  32385.6  180.589
 7.2856  32249.6  179.254
 7.4836  32580.2  179.588
 7.6816  33691.8  183.078
 7.8796  34677.7  185.721
 8.0776  36448.1  191.398
 8.2756  38203.6  194.532
 8.4736  38864.2  196.017
 8.6716  37946  194.336
 8.8696  37844  194.562
 9.0676  37076.1  191.92
 9.2656  36036.2  189.908
 9.4636  35906.8  187.941
 9.6616  35045  186.463
 9.8596  33655.1  182.215
 10.0576  31842.1  177.913
 10.2556  30554.5  174.709
 10.4536  29233  170.496
 10.6516  28800.8  169.419
 10.8496  27722.4  165.625
 11.0476  27073.2  163.704
 11.2456  26395.6  162.175
 11.4436  26071.7  160.347
 11.6416  27678  165.587
 11.8396  25328.4  158.609
 12.0376  25229.2  157.922
 12.2356  24690.1  156.638
 12.4336  24497.3  155.571
 12.6316  24291.5  155.183
 12.8296  24494.6  155.461
 13.0276  25152.4  157.72
 13.2256  25212  158.28
 13.4236  25221.5  158.075
 13.6216  25063.7  157.6
 13.8196  25081.6  157.415
 14.0176  24748  156.655
 14.2156  24033.2  153.413
 14.4136  22997.3  151.458
 14.6116  22649.6  149.508
 14.8096  22024.7  147.41
 15.0076  20837.1  147.242
 15.2056  20503.6  141.823
 15.4036  19591.7  139.474
 15.6016  19042.1  136.578
 15.7996  18573.9  135.164
 15.9976  17954.2  135.869
 16.1956  17200.9  130.86
 16.3936  16778.5  128.417
 16.5916  16782.5  129.069
 16.7896  16485.6  127.982
 16.9876  16433.8  129.258
 17.1856  16389.9  127.445
 17.3836  15971.2  125.709
 17.5816  15288.3  123.473
 17.7796  15133.9  122.785
 17.9776  14924.2  122.707
 18.1756  14919.9  121.399
 18.3736  14651.2  120.812
 18.5716  14494.8  119.918
 18.7696  14604.3  119.931
 18.9676  14189.2  118.025
 19.1656  14224.2  118.724
 19.3636  14112  118.468
 19.5616  13975.3  118.052
 19.7596  14116  118.06
 19.9576  14157.6  118.287
 20.1556  15145.6  122.88
 20.3536  14494.2  119.563
 20.5516  13906.9  117.583
 20.7496  13546.7  115.986
 20.9476  13297.3  114.665
 21.1456  13445.1  115.632
 21.3436  13268.6  114.817
 21.5416  13066.3  113.942
 21.7396  12990  113.454
 21.9376  12949.8  113.041
 22.1356  13113.7  113.883
 22.3336  13006  113.711
 22.5316  12819.3  112.975
 22.7296  13012.8  113.18
 22.9276  12972.6  113.688
 23.1256  13024.3  113.377
 23.3236  13117.8  114.36
 23.5216  13061.9  113.764
 23.7196  12592.3  111.646
 23.9176  12596.2  111.419
 24.1156  12498.5  111.462
 24.3136  12150.3  110.711
 24.5116  12129.6  110.137
 24.7096  11690.3  107.943
 24.9076  11463.6  106.916
 25.1056  11253.1  106.396
 25.3036  11311.9  106.171
 25.5016  11180.5  105.572
 25.6996  11308.9  105.767
 25.8976  11084.6  105.151
 26.0956  11129.3  105.378
 26.2936  11102.7  104.905
 26.4916  11193.1  105.205
 26.6896  10795.6  103.614
 26.8876  10723  103.115
 27.0856  10806.6  103.569
 27.2836  10483.1  101.968
 27.4816  10453.1  101.692
 27.6796  10328.7  101.463
 27.8776  10309.5  101.223
 28.0756  10324.9  101.587
 28.2736  10254.5  100.823
 28.4716  10099.1  100.099
 28.6696  10108.6  99.994
 28.8676  9944.89  99.5303
 29.0656  9856.49  99.0771
 29.2636  9885.3  99.0087
 29.4616  9887.56  99.196
 29.6596  9821.13  98.425
 29.8576  9568.47  97.8376
 30.0556  9723.09  98.4942
 30.2536  9741.03  98.3829
 30.4516  9604.14  97.3427
 30.6496  9869.89  98.4036
 30.8476  9614.69  97.5692
 31.0456  9567.32  97.2924
 31.2436  9644.12  96.9392
 31.4416  9348.11  95.6254
 31.6396  9298.93  95.4211
 31.8376  9284.24  94.8933
 32.0356  9439.51  96.2529
 32.2336  9263.76  94.7391
 32.4316  9188.49  94.7107
 32.6296  9193.95  94.6158
 32.8276  9252.4  94.6876
 33.0256  9014.93  93.5437
 33.2236  8976.37  93.4903
 33.4216  9050.72  93.5554
 33.6196  9017.79  93.6901
 33.8176  8978.04  93.6469
 34.0156  8816.86  92.4158
 34.2136  8847.15  92.6171
 34.4116  8782.8  92.5414
 34.6096  8842.59  92.6168
 34.8076  8553.27  91.5016
 35.0056  8748.21  92.2205
 35.2036  8718.33  92.2811
 35.4016  8721.21  92.2157
 35.5996  8597.04  91.5937
 35.7976  8424.8  90.9504
 35.9956  8514.6  91.0681
 36.1936  8549.65  91.1253
 36.3916  8402.36  90.4711
 36.5896  8357.35  91.2421
 36.7876  8389.92  90.8237
 36.9856  8271.08  90.2023
 37.1836  8371.84  89.848
 37.3816  8306.38  89.8586
 37.5796  8310.62  91.636
 37.7776  8160.75  89.1707
 37.9756  8245.77  89.5044
 38.1736  8266.55  89.8193
 38.3716  8257.53  90.0516
 38.5696  8171.47  89.9626
 38.7676  7842.18  87.6483
 38.9656  8132.94  88.889
 39.1636  7921.05  87.9895
 39.3616  8081.45  88.8044
 39.5596  7898.73  88.6328
 39.7576  7925.59  88.1631
 39.9556  8040.41  88.4254
 40.1536  8052.7  88.7018
 40.3516  8079.77  88.8628
 40.5496  8099.38  89.2388
 40.7476  8170.93  89.6337
 40.9456  8188.83  89.4775
 41.1436  8046.38  88.416
 41.3416  8006.48  88.4991
 41.5396  7929.59  87.8538
 41.7376  8074.27  88.9819
 41.9356  7902.39  87.8872
 42.1336  8055.87  88.8885
 42.3316  7912.79  88.2908
 42.5296  8038.02  88.5004
 42.7276  7984.12  88.4439
 42.9256  7838.09  87.5021
 43.1236  7811.41  87.4609
 43.3216  7956.57  88.0136
 43.5196  7774.99  87.074
 43.7176  7842.04  87.8345
 43.9156  7644.4  86.6314
 44.1136  7553.65  85.6745
 44.3116  7736.57  86.712
 44.5096  7628.72  86.4195
 44.7076  7606.16  86.2221
 44.9056  7652.61  86.3524
 45.1036  7658.36  86.0119
 45.3016  7552.82  85.9139
 45.4996  7579.52  86.0091
 45.6976  7329.96  84.7534
 45.8956  7518.06  85.6614
 46.0936  7504.65  85.5298
 46.2916  7439.41  85.1935
 46.4896  7461.37  85.3607
 46.6876  7262.33  84.9176
 46.8856  7234.73  84.0042
 47.0836  7204.92  84.0882
 47.2816  7295.27  84.4915
 47.4796  7192.27  83.9868
 47.6776  7117.29  84.4905
 47.8756  7094.79  83.5451
 48.0736  7173.33  84.4631
 48.2716  7020.75  83.409
 48.4696  7124.92  83.6114
 48.6676  7010.91  83.4942
 48.8656  7109.73  83.8039
 49.0636  7092.7  83.6596
 49.2616  6959.12  82.7931
 49.4596  6984.57  82.7647
 49.6576  6953.16  82.6495
 49.8556  6894.86  82.3296
 50.0536  6903.47  82.826
 50.2516  6854.87  82.6674
 50.4496  6841.68  82.2425
 50.6476  6946.86  82.5566
 50.8456  6875.58  82.2217
 51.0436  6741.9  81.8509
 51.2416  6787.53  81.7985
 51.4396  6532.51  80.637
 51.6376  6722.87  81.6331
 51.8356  6641.58  80.7706
 52.0336  6555.37  80.7506
 52.2316  6607.68  81.4228
 52.4296  6593.21  81.0138
 52.6276  6569.91  80.9985
 52.8256  6501.44  80.1304
 53.0236  6469.99  80.5861
 53.2216  6448.45  80.4836
 53.4196  6468.29  80.537
 53.6176  6484.19  81.1151
 53.8156  6417.62  80.3696
 54.0136  6447.48  80.718
 54.2116  6380.88  79.9683
 54.4096  6461.61  80.521
 54.6076  6331.63  80.0584
 54.8056  6289.25  79.5794
 55.0036  6379.08  80.5384
 55.2016  6338.71  79.8295
 55.3996  6345.88  79.8415
 55.5976  6269.96  79.5503
 55.7956  6341.83  79.816
 55.9936  6337.45  79.9292
 56.1916  6370.18  80.1573
 56.3896  6305.71  79.7396
 56.5876  6272.52  80.0747
 56.7856  6230.09  79.2934
 56.9836  6103.08  78.2696
 57.1816  6249.8  79.5832
 57.3796  6330.17  79.8855
 57.5776  6231.52  79.1752
 57.7756  6269.3  80.0714
 57.9736  6193.92  79.2646
 58.1716  6206.48  79.5849
 58.3696  6190.65  79.2357
 58.5676  6220.8  78.8956
 58.7656  6288.36  80.003
 58.9636  6233.11  79.6869
 59.1616  6272.18  80.0654
 59.3596  6319.24  79.6032
 59.5576  6140.56  78.5274
 59.7556  6132.24  78.8956
 59.9536  6442.24  80.7608
 60.1516  6302.71  80.7484
 60.1996  0.0000000E+00  0.0000000E+00