Folder: echemistpy/docs/examples/opeando_xrd/IS17_D/Data/IS17_D (part 44)

File: 17_Da_f00114.xye
# /beamlines/bl04/projects/cycle2025-II/20250340211-lsimonelli/DATA/IS17_D/17_Da_f00114.xye : mythproc.py merge -s 0.006 -l 0.5 -f /beamlines/bl04/inhouse/ff/FlatField/ff_20Nov2024rod8mm60s_17keV.raw -b True -c true -o xye /beamlines/bl04/projects/cycle2025-II/20250340211-lsimonelli/DATA/IS17_D/17_Da_00114.dat
# IsMon = [6784765, 6790276, 6788560]  IsPos = [-1.4999, -2.4884, -3.4988]
# Wave = 0.4962  CalPath /beamlines/bl04/projects/cycle2025-II/20250340211-lsimonelli/DATA/Align/Si_Pos1_25keV_f00001.cal
# Date = 2025-09-25_01:20:24 Dt = 4.8000  Bin = 0.0060  <imon> = 6787867 +/- 2303 (Min/Max) 6784765 / 6790276
# icurr 252.5087  mocoIn 1.7219E-05  mocoOut 0.8083  i15 7.10546e+06  imon 6.78787e+06  i7 6.0000  iEMpd_timer 4.8000  iEMpd_1 3.4643E-08  iEMpd_2 7.8805E-08  iEMpd_3 1.6416E-08  iEMpd_4 4.8260E-08  iEMhp_timer 4.8000  iEMhp_1 4.9322E-06  iEMhp_2 -2.4798E-08  iEMhp_3 -2.3766E-08  iEMhp_4 -2.0096E-08
#      9776
 1.7416  70481.8  265.621
 1.9396  47200.2  217.649
 2.1376  34039.9  184.829
 2.3356  30753.7  175.311
 2.5336  28939.1  170.659
 2.7316  27309  165.864
 2.9296  25977.2  161.94
 3.1276  25565.6  160.196
 3.3256  24964.5  157.941
 3.5236  26696.1  163.127
 3.7216  24232.3  156.682
 3.9196  23561.7  153.719
 4.1176  23657.6  153.806
 4.3156  24711.2  157.353
 4.5136  27064.8  163.639
 4.7116  28089.2  167.866
 4.9096  27467  165.425
 5.1076  27206.8  165.233
 5.3056  27597.3  166.133
 5.5036  27347.5  165.262
 5.7016  27593.7  165.983
 5.8996  28256.3  167.17
 6.0976  28923.1  170.595
 6.2956  29598.4  171.883
 6.4936  30337.5  173.195
 6.6916  30751  175.393
 6.8896  31448.6  177.232
 7.0876  32647.4  181.316
 7.2856  32498.7  179.943
 7.4836  33201  181.203
 7.6816  33650.4  182.964
 7.8796  35265.5  187.283
 8.0776  36517.9  191.569
 8.2756  38546.7  195.407
 8.4736  39288.1  197.074
 8.6716  38388.9  195.445
 8.8696  38532.2  196.333
 9.0676  37823  193.872
 9.2656  36681.5  191.623
 9.4636  36430.6  189.333
 9.6616  35515.7  187.733
 9.8596  34025.1  183.202
 10.0576  32112.7  178.642
 10.2556  30997.8  175.961
 10.4536  29596.7  171.544
 10.6516  29247.4  170.719
 10.8496  28301.8  167.351
 11.0476  27544.1  165.118
 11.2456  26839.8  163.523
 11.4436  27132  163.578
 11.6416  28109.8  166.871
 11.8396  25579.8  159.398
 12.0376  25512.7  158.813
 12.2356  24856  157.159
 12.4336  24908.5  156.865
 12.6316  24533.3  155.962
 12.8296  24876.2  156.671
 13.0276  25419.7  158.553
 13.2256  25716.5  159.854
 13.4236  25364.5  158.521
 13.6216  25300.8  158.347
 13.8196  25220.9  157.853
 14.0176  24875.2  157.051
 14.2156  24528  154.986
 14.4136  23157.2  151.987
 14.6116  22801  150.003
 14.8096  22101.3  147.67
 15.0076  21005.8  147.842
 15.2056  20522.8  141.882
 15.4036  19684.3  139.791
 15.6016  19307.5  137.52
 15.7996  18653.1  135.451
 15.9976  18080.8  136.342
 16.1956  17583.9  132.324
 16.3936  17124.3  129.748
 16.5916  16798.8  129.15
 16.7896  16781  129.142
 16.9876  16751.7  130.503
 17.1856  16613.7  128.291
 17.3836  15997.8  125.806
 17.5816  15492.4  124.287
 17.7796  15372.8  123.739
 17.9776  15116.4  123.504
 18.1756  15180.8  122.445
 18.3736  14919.5  121.907
 18.5716  14679.9  120.681
 18.7696  14794.6  120.715
 18.9676  14408.9  118.942
 19.1656  14490.4  119.839
 19.3636  14375.8  119.565
 19.5616  14334.4  119.567
 19.7596  14392.8  119.205
 19.9576  14561.1  119.957
 20.1556  15416.4  123.974
 20.3536  14427.6  119.298
 20.5516  13993.5  117.947
 20.7496  13586  116.151
 20.9476  13517.1  115.608
 21.1456  13677.7  116.625
 21.3436  13281.7  114.879
 21.5416  13279.8  114.864
 21.7396  13161.6  114.2
 21.9376  13164.4  113.981
 22.1356  13160.7  114.084
 22.3336  13037.8  113.836
 22.5316  13123.1  114.3
 22.7296  13074.4  113.437
 22.9276  13007.8  113.836
 23.1256  13172.2  114.018
 23.3236  13053.9  114.097
 23.5216  13039.9  113.685
 23.7196  12924.9  113.123
 23.9176  12751  112.12
 24.1156  12736.9  112.534
 24.3136  12177.3  110.828
 24.5116  12212.5  110.506
 24.7096  11775.5  108.329
 24.9076  11592.2  107.516
 25.1056  11414.3  107.148
 25.3036  11445.7  106.792
 25.5016  11441.2  106.81
 25.6996  11343.2  105.928
 25.8976  11277.1  106.063
 26.0956  11311.8  106.244
 26.2936  11198.1  105.34
 26.4916  11293.2  105.671
 26.6896  10920.6  104.216
 26.8876  10969.2  104.3
 27.0856  10918.3  104.108
 27.2836  10660.2  102.761
 27.4816  10631.5  102.547
 27.6796  10428.1  101.95
 27.8776  10475.2  102.041
 28.0756  10548.4  102.677
 28.2736  10366.7  101.374
 28.4716  10265.1  100.918
 28.6696  10276.8  100.824
 28.8676  9966.84  99.6383
 29.0656  10057.2  100.071
 29.2636  10041.1  99.7831
 29.4616  10013.1  99.8196
 29.6596  9990.3  99.2624
 29.8576  9864.82  99.3352
 30.0556  9811.26  98.9431
 30.2536  9891.59  99.1338
 30.4516  9638.11  97.5282
 30.6496  9860.97  98.3665
 30.8476  9768.47  98.3583
 31.0456  9645.31  97.6977
 31.2436  9630.32  96.8816
 31.4416  9542.19  96.6066
 31.6396  9438.69  96.1285
 31.8376  9400.11  95.4713
 32.0356  9342.79  95.744
 32.2336  9276.77  94.8028
 32.4316  9273.89  95.1886
 32.6296  9260.41  94.9532
 32.8276  9365.13  95.2598
 33.0256  9145.87  94.2209
 33.2236  9093.53  94.1011
 33.4216  9203.67  94.35
 33.6196  9135.57  94.2947
 33.8176  9131.25  94.4378
 34.0156  9043.87  93.6035
 34.2136  9055.24  93.7021
 34.4116  8924.4  93.1704
 34.6096  8878.33  92.8061
 34.8076  8715.03  92.3583
 35.0056  8881.86  92.9285
 35.2036  8848.62  92.9608
 35.4016  8847.92  92.8805
 35.5996  8674.86  92.0083
 35.7976  8568.21  91.7212
 35.9956  8665.04  91.8709
 36.1936  8522.28  90.983
 36.3916  8543.61  91.275
 36.5896  8502.82  92.0384
 36.7876  8386.52  90.8023
 36.9856  8441.31  91.1211
 37.1836  8354.62  89.7494
 37.3816  8418.15  90.4628
 37.5796  8315.77  91.6517
 37.7776  8273.4  89.7916
 37.9756  8286.14  89.7392
 38.1736  8424.82  90.6865
 38.3716  8263.03  90.0921
 38.5696  8162.78  89.9159
 38.7676  7952.06  88.2541
 38.9656  8017.51  88.2512
 39.1636  8030.58  88.5923
 39.3616  8138.59  89.1085
 39.5596  7995.66  89.1729
 39.7576  8041.55  88.799
 39.9556  8118.81  88.866
 40.1536  8264.66  89.8692
 40.3516  8298.89  90.0579
 40.5496  8280.64  90.2274
 40.7476  8288.77  90.2819
 40.9456  8251.03  89.8164
 41.1436  8142.32  88.9474
 41.3416  8182.85  89.5
 41.5396  8101.01  88.8593
 41.7376  8216.69  89.7654
 41.9356  8038.23  88.6405
 42.1336  8115.98  89.2207
 42.3316  8069.26  89.1583
 42.5296  8092.87  88.8016
 42.7276  8000.46  88.5354
 42.9256  7968.25  88.2259
 43.1236  7990.11  88.4562
 43.3216  7974.8  88.1206
 43.5196  7858.87  87.5402
 43.7176  7931.17  88.3408
 43.9156  7883.24  87.975
 44.1136  7789.72  86.9961
 44.3116  7805.75  87.1026
 44.5096  7766.02  87.1815
 44.7076  7691.28  86.7005
 44.9056  7791.01  87.1442
 45.1036  7703.04  86.2692
 45.3016  7585.94  86.1169
 45.4996  7645.43  86.3919
 45.6976  7439.44  85.3909
 45.8956  7559.42  85.8923
 46.0936  7603.98  86.1456
 46.2916  7605.66  86.136
 46.4896  7505.95  85.6045
 46.6876  7400.44  85.7163
 46.8856  7394.65  84.9327
 47.0836  7372.69  85.0586
 47.2816  7221.46  84.0569
 47.4796  7303.14  84.6417
 47.6776  7207.68  85.02
 47.8756  7305.34  84.7729
 48.0736  7278.83  85.0828
 48.2716  7091.46  83.793
 48.4696  7253.47  84.3375
 48.6676  7154.02  84.3491
 48.8656  7195.93  84.3101
 49.0636  7200.8  84.2919
 49.2616  6977.55  83.0116
 49.4596  7071.23  83.1262
 49.6576  7004.94  82.954
 49.8556  7038.18  83.1816
 50.0536  6944.19  83.0735
 50.2516  6996.42  83.5193
 50.4496  6979.74  83.0613
 50.6476  6985.76  82.7863
 50.8456  6894.65  82.3346
 51.0436  6844.19  82.464
 51.2416  6833.47  82.0755
 51.4396  6602.38  81.0472
 51.6376  6769.91  81.9082
 51.8356  6831.16  81.9121
 52.0336  6628.37  81.2032
 52.2316  6560.96  81.1386
 52.4296  6695.81  81.6666
 52.6276  6657.38  81.5398
 52.8256  6623.04  80.877
 53.0236  6562.67  81.1565
 53.2216  6523.64  80.9514
 53.4196  6489.19  80.6607
 53.6176  6475.32  81.0538
 53.8156  6537.34  81.1052
 54.0136  6483.78  80.9508
 54.2116  6434.73  80.3099
 54.4096  6423.26  80.2823
 54.6076  6456.51  80.8451
 54.8056  6418.33  80.3918
 55.0036  6441.49  80.9331
 55.2016  6418.62  80.3327
 55.3996  6337.62  79.7908
 55.5976  6320.34  79.8668
 55.7956  6403.17  80.2051
 55.9936  6411.34  80.3965
 56.1916  6331.49  79.913
 56.3896  6396.62  80.311
 56.5876  6253.34  79.9624
 56.7856  6256.39  79.4574
 56.9836  6251.74  79.2185
 57.1816  6300.73  79.9092
 57.3796  6246.37  79.3506
 57.5776  6247.56  79.2828
 57.7756  6265.78  80.0532
 57.9736  6165.57  79.084
 58.1716  6294.16  80.1493
 58.3696  6380.74  80.4351
 58.5676  6244.03  79.0355
 58.7656  6292.36  80.0277
 58.9636  6283.31  80.0039
 59.1616  6223.34  79.7491
 59.3596  6415.61  80.2188
 59.5576  6358.13  79.9168
 59.7556  6459.77  80.9856
 59.9536  6415.27  80.6019
 60.1516  6399.99  81.3797
 60.1996  0.0000000E+00  0.0000000E+00

File: 17_Da_f00115.xye
# /beamlines/bl04/projects/cycle2025-II/20250340211-lsimonelli/DATA/IS17_D/17_Da_f00115.xye : mythproc.py merge -s 0.006 -l 0.5 -f /beamlines/bl04/inhouse/ff/FlatField/ff_20Nov2024rod8mm60s_17keV.raw -b True -c true -o xye /beamlines/bl04/projects/cycle2025-II/20250340211-lsimonelli/DATA/IS17_D/17_Da_00115.dat
# IsMon = [6762332, 6783697, 6799111]  IsPos = [-1.5000, -2.4884, -3.4988]
# Wave = 0.4962  CalPath /beamlines/bl04/projects/cycle2025-II/20250340211-lsimonelli/DATA/Align/Si_Pos1_25keV_f00001.cal
# Date = 2025-09-25_01:37:00 Dt = 4.8000  Bin = 0.0060  <imon> = 6781713 +/- 15080 (Min/Max) 6762332 / 6799111
# icurr 251.2100  mocoIn 1.7146E-05  mocoOut 0.8034  i15 7.09757e+06  imon 6.78171e+06  i7 4.3333  iEMpd_timer 4.8000  iEMpd_1 3.5221E-08  iEMpd_2 7.9495E-08  iEMpd_3 1.7424E-08  iEMpd_4 4.7934E-08  iEMhp_timer 4.8000  iEMhp_1 4.9206E-06  iEMhp_2 -2.4750E-08  iEMhp_3 -2.3813E-08  iEMhp_4 -2.0728E-08
#      9776
 1.7416  70608.4  266.179
 1.9396  46558.1  216.42
 2.1376  33513  183.612
 2.3356  30257.5  174.101
 2.5336  28225.2  168.744
 2.7316  27088.8  165.292
 2.9296  25997.3  162.104
 3.1276  25276.1  159.409
 3.3256  24841  157.616
 3.5236  26324.3  162.056
 3.7216  24242  156.716
 3.9196  23610.7  153.886
 4.1176  23328.6  152.778
 4.3156  24680.1  157.203
 4.5136  27025.3  163.521
 4.7116  28142.8  168.027
 4.9096  27438.8  165.343
 5.1076  26949.3  164.497
 5.3056  27179.4  164.822
 5.5036  27113.7  164.551
 5.7016  27444.7  165.531
 5.8996  28100.9  166.709
 6.0976  28781.9  170.23
 6.2956  29468.4  171.464
 6.4936  30200.7  172.812
 6.6916  30511.2  174.708
 6.8896  31506.3  177.394
 7.0876  32686.2  181.401
 7.2856  32282  179.345
 7.4836  32704.6  179.842
 7.6816  33904.7  183.654
 7.8796  35050.7  186.596
 8.0776  36580.2  191.617
 8.2756  38739  195.731
 8.4736  38997.6  196.225
 8.6716  38337.5  195.234
 8.8696  38435.9  196.078
 9.0676  37593.3  193.277
 9.2656  36387.8  190.842
 9.4636  36306.4  188.934
 9.6616  35638.5  187.972
 9.8596  33732.1  182.524
 10.0576  32188.8  178.918
 10.2556  30853.3  175.663
 10.4536  30029.4  172.896
 10.6516  28712.5  169.258
 10.8496  28276.6  167.275
 11.0476  27474.3  164.91
 11.2456  26899.4  163.698
 11.4436  26924  162.943
 11.6416  27579.1  165.288
 11.8396  25570.5  159.414
 12.0376  25367.3  158.304
 12.2356  24676.5  156.585
 12.4336  24922  156.902
 12.6316  24400.8  155.577
 12.8296  24687.2  156.076
 13.0276  25512.4  158.799
 13.2256  25457.8  159.054
 13.4236  25269.4  158.218
 13.6216  25160.3  157.951
 13.8196  25134.1  157.579
 14.0176  24673.9  156.37
 14.2156  24145  153.769
 14.4136  23089.6  151.759
 14.6116  22735.5  149.787
 14.8096  21984.8  147.227
 15.0076  20841.7  147.302
 15.2056  20631.3  142.171
 15.4036  19549.4  139.23
 15.6016  19326.7  137.495
 15.7996  18826.6  135.972
 15.9976  17952.2  135.826
 16.1956  17391.1  131.596
 16.3936  17054.9  129.484
 16.5916  16856.2  129.367
 16.7896  16800.2  129.212
 16.9876  16666.8  130.201
 17.1856  16532  128.029
 17.3836  15943.6  125.664
 17.5816  15609.7  124.834
 17.7796  15229.7  123.239
 17.9776  15050.9  123.233
 18.1756  15207.8  122.562
 18.3736  14843.3  121.596
 18.5716  14582.2  120.273
 18.7696  14669.6  120.2
 18.9676  14437.5  119.096
 19.1656  14381.5  119.341
 19.3636  14374.9  119.559
 19.5616  14285.4  119.362
 19.7596  14247.8  118.64
 19.9576  14591.3  120.079
 20.1556  15486.1  124.222
 20.3536  14261  118.601
 20.5516  13960.6  117.798
 20.7496  13412.1  115.356
 20.9476  13515.5  115.636
 21.1456  13539.6  116.001
 21.3436  13269  114.824
 21.5416  13144.3  114.284
 21.7396  13022.1  113.593
 21.9376  13081.3  113.583
 22.1356  13065  113.852
 22.3336  13138.8  114.231
 22.5316  13120.2  114.217
 22.7296  13142.8  113.661
 22.9276  12954.4  113.533
 23.1256  13259.6  114.306
 23.3236  13265.9  115.016
 23.5216  12905.9  113.095
 23.7196  12638.1  112.134
 23.9176  12671.6  111.813
 24.1156  12519.7  111.567
 24.3136  12075.3  110.43
 24.5116  12256.1  110.766
 24.7096  11793.1  108.477
 24.9076  11701  108.102
 25.1056  11529  107.752
 25.3036  11388  106.521
 25.5016  11300.8  106.146
 25.6996  11255.3  105.512
 25.8976  11237.2  105.906
 26.0956  11336.5  106.325
 26.2936  11181.3  105.265
 26.4916  11308.5  105.739
 26.6896  10931.2  104.266
 26.8876  10820.5  103.625
 27.0856  10861.5  103.797
 27.2836  10662.1  102.772
 27.4816  10538.4  102.1
 27.6796  10503.9  102.314
 27.8776  10354.7  101.483
 28.0756  10454.7  102.195
 28.2736  10226.2  100.683
 28.4716  10058.8  99.9066
 28.6696  10335.3  101.11
 28.8676  10100.5  100.308
 29.0656  9980.65  99.6903
 29.2636  9950.95  99.3548
 29.4616  10080.4  100.094
 29.6596  9982.44  99.1658
 29.8576  9825.51  99.078
 30.0556  9872.89  99.1724
 30.2536  9985.1  99.542
 30.4516  9620.13  97.4336
 30.6496  9720.56  97.6657
 30.8476  9654.5  97.7801
 31.0456  9598.24  97.4979
 31.2436  9591.9  96.7228
 31.4416  9351.72  95.6943
 31.6396  9409.99  96.0428
 31.8376  9616.34  96.628
 32.0356  9364.78  95.9257
 32.2336  9235.54  94.6714
 32.4316  9338.44  95.5197
 32.6296  9315.23  95.2348
 32.8276  9203.95  94.4371
 33.0256  9061.71  93.7866
 33.2236  9066.87  93.99
 33.4216  9221.06  94.406
 33.6196  9031.58  93.7562
 33.8176  9085.92  94.2005
 34.0156  8965.85  93.1931
 34.2136  8901.37  92.9297
 34.4116  8888.93  92.9626
 34.6096  8873.75  92.7884
 34.8076  8717.32  92.3671
 35.0056  8832.36  92.6664
 35.2036  8815.38  92.8203
 35.4016  8845.12  92.8439
 35.5996  8620.52  91.7149
 35.7976  8616.68  91.9711
 35.9956  8702.56  92.0686
 36.1936  8554.97  91.1608
 36.3916  8554.85  91.3304
 36.5896  8492.46  91.9997
 36.7876  8590.03  91.8386
 36.9856  8241.69  89.9876
 37.1836  8510.9  90.5301
 37.3816  8542.86  91.0553
 37.5796  8289.9  91.5171
 37.7776  8292.18  89.9217
 37.9756  8193.93  89.2736
 38.1736  8467.07  90.9151
 38.3716  8215.58  89.8305
 38.5696  8154.15  89.8667
 38.7676  7919.26  88.1274
 38.9656  8082.5  88.6628
 39.1636  8067.1  88.8656
 39.3616  8119.91  89.037
 39.5596  7960.92  88.9828
 39.7576  7935.42  88.2158
 39.9556  8137.63  88.9672
 40.1536  8209.5  89.5644
 40.3516  8210.94  89.583
 40.5496  8203.33  89.8023
 40.7476  8193.55  89.7522
 40.9456  8300.98  90.0865
 41.1436  8231.6  89.457
 41.3416  8118.72  89.1231
 41.5396  8153.83  89.1496
 41.7376  8088.05  89.0549
 41.9356  8167.19  89.3495
 42.1336  8008.96  88.6592
 42.3316  8024.67  88.8908
 42.5296  8034.93  88.4833
 42.7276  7969.3  88.3617
 42.9256  8058.43  88.7196
 43.1236  7911.56  88.0188
 43.3216  7975.17  88.1206
 43.5196  7845.86  87.4912
 43.7176  7825.98  87.7526
 43.9156  7784.86  87.3693
 44.1136  7706.36  86.4768
 44.3116  7776.29  86.867
 44.5096  7789.19  87.2676
 44.7076  7776.66  87.1281
 44.9056  7691.88  86.5871
 45.1036  7672.33  86.0978
 45.3016  7556.19  85.9481
 45.4996  7608.12  86.1801
 45.6976  7297.95  84.5442
 45.8956  7589.49  86.1139
 46.0936  7633.36  86.1221
 46.2916  7544.6  85.8455
 46.4896  7575.41  86.0549
 46.6876  7358.66  85.5294
 46.8856  7351.42  84.6818
 47.0836  7306.09  84.702
 47.2816  7196.92  83.9151
 47.4796  7413.05  85.2783
 47.6776  7183.74  84.8886
 47.8756  7283.96  84.6511
 48.0736  7191.68  84.5737
 48.2716  7073.18  83.6637
 48.4696  7206.66  84.071
 48.6676  7093.5  83.9893
 48.8656  7175.85  84.1948
 49.0636  7148.55  84.0097
 49.2616  7001.99  83.1373
 49.4596  7048.72  82.9971
 49.6576  6995.59  82.9133
 49.8556  6951.82  82.6694
 50.0536  6975.48  83.2605
 50.2516  6920.63  83.0673
 50.4496  6930.59  82.7719
 50.6476  6948.82  82.5652
 50.8456  6927.76  82.5235
 51.0436  6760.5  81.9104
 51.2416  6781.36  81.694
 51.4396  6724.24  81.7554
 51.6376  6741.37  81.6988
 51.8356  6730.51  81.2728
 52.0336  6562.52  80.7992
 52.2316  6506.6  80.8028
 52.4296  6689.45  81.5759
 52.6276  6675.81  81.6076
 52.8256  6604.41  80.7515
 53.0236  6516.54  80.9221
 53.2216  6471.7  80.6357
 53.4196  6317.58  79.6353
 53.6176  6429.11  80.8084
 53.8156  6324.77  79.8207
 54.0136  6457.39  80.7578
 54.2116  6440.05  80.3648
 54.4096  6433.63  80.3431
 54.6076  6358.21  80.2251
 54.8056  6353.86  79.9848
 55.0036  6384.44  80.4726
 55.2016  6384.56  80.0394
 55.3996  6422.25  80.2999
 55.5976  6335.7  79.962
 55.7956  6387.69  80.1074
 55.9936  6352.7  80.0463
 56.1916  6362.1  80.0988
 56.3896  6322.4  79.8167
 56.5876  6173.56  79.4492
 56.7856  6161.82  78.8406
 56.9836  6220.48  79.034
 57.1816  6304.07  79.9524
 57.3796  6337.47  79.9285
 57.5776  6314.51  79.7158
 57.7756  6180.65  79.5069
 57.9736  6275.38  79.7842
 58.1716  6302.8  80.1672
 58.3696  6242.18  79.5243
 58.5676  6297.68  79.3395
 58.7656  6377.62  80.5198
 58.9636  6332.76  80.2702
 59.1616  6327.6  80.3558
 59.3596  6377.61  79.8825
 59.5576  6381.23  79.9634
 59.7556  6353.52  80.2181
 59.9536  6558.07  81.3939
 60.1516  6192.47  79.951
 60.1996  0.0000000E+00  0.0000000E+00