Folder: echemistpy/docs/examples/opeando_xrd/IS17_D/Data/IS17_D (part 39)

File: 17_Da_f00103.xye
# /beamlines/bl04/projects/cycle2025-II/20250340211-lsimonelli/DATA/IS17_D/17_Da_f00103.xye : mythproc.py merge -s 0.006 -l 0.5 -f /beamlines/bl04/inhouse/ff/FlatField/ff_20Nov2024rod8mm60s_17keV.raw -b True -c true -o xye /beamlines/bl04/projects/cycle2025-II/20250340211-lsimonelli/DATA/IS17_D/17_Da_00103.dat
# IsMon = [6747308, 6744173, 6745236]  IsPos = [-1.4999, -2.4884, -3.4989]
# Wave = 0.4962  CalPath /beamlines/bl04/projects/cycle2025-II/20250340211-lsimonelli/DATA/Align/Si_Pos1_25keV_f00001.cal
# Date = 2025-09-24_22:15:38 Dt = 4.8000  Bin = 0.0060  <imon> = 6745572 +/- 1302 (Min/Max) 6744173 / 6747308
# icurr 248.8455  mocoIn 1.6971E-05  mocoOut 0.7966  i15 7.06521e+06  imon 6.74557e+06  i7 3.0000  iEMpd_timer 4.8000  iEMpd_1 3.3112E-08  iEMpd_2 7.8117E-08  iEMpd_3 1.7903E-08  iEMpd_4 4.8971E-08  iEMhp_timer 4.8000  iEMhp_1 4.8633E-06  iEMhp_2 -2.4505E-08  iEMhp_3 -2.4630E-08  iEMhp_4 -2.2143E-08
#      9776
 1.7416  70232.6  265.056
 1.9396  45907.7  214.558
 2.1376  33179.4  182.412
 2.3356  29687.9  172.185
 2.5336  28018.1  167.862
 2.7316  26142.6  162.273
 2.9296  25329.2  159.902
 3.1276  24567.9  157.014
 3.3256  24343  155.975
 3.5236  25791.4  160.346
 3.7216  23439.8  154.101
 3.9196  22986.4  151.831
 4.1176  22709.3  150.677
 4.3156  24019.3  155.133
 4.5136  26358.9  161.501
 4.7116  27579.1  166.334
 4.9096  26775.5  163.331
 5.1076  26332.5  162.542
 5.3056  26674.1  163.333
 5.5036  26344.9  162.217
 5.7016  26767.3  163.479
 5.8996  27496.5  164.906
 6.0976  28119.1  168.189
 6.2956  28660.6  169.148
 6.4936  29350  170.365
 6.6916  29694.9  172.356
 6.8896  30466.2  174.434
 7.0876  31494.9  178.087
 7.2856  31349.9  176.738
 7.4836  31587.6  176.742
 7.6816  32505.3  179.821
 7.8796  33917  183.695
 8.0776  35084  187.804
 8.2756  37200.2  191.991
 8.4736  37568.4  192.748
 8.6716  36984.9  191.88
 8.8696  36733.7  191.675
 9.0676  35860.4  188.749
 9.2656  34741.5  186.459
 9.4636  34580.6  184.458
 9.6616  33840.2  183.238
 9.8596  32485.1  179.001
 10.0576  30731.7  174.772
 10.2556  29653.3  172.094
 10.4536  28384.7  167.98
 10.6516  27651.7  165.998
 10.8496  26900.6  163.152
 11.0476  26372.5  161.568
 11.2456  25605.1  159.725
 11.4436  25570.8  158.8
 11.6416  26682.8  162.584
 11.8396  24430.7  155.761
 12.0376  24335.8  155.11
 12.2356  23769.8  153.7
 12.4336  23607.3  152.715
 12.6316  23375.9  152.223
 12.8296  23669  152.823
 13.0276  24153.5  154.565
 13.2256  24361.4  155.582
 13.4236  24436.7  155.596
 13.6216  24020.1  154.272
 13.8196  24144.2  154.448
 14.0176  23614.7  152.937
 14.2156  23313.8  151.095
 14.4136  22355.4  149.331
 14.6116  22083.1  147.626
 14.8096  21281.9  144.91
 15.0076  20123.6  144.694
 15.2056  19794.9  139.368
 15.4036  18674.8  136.193
 15.6016  18531.4  134.753
 15.7996  17902.6  132.723
 15.9976  17287.1  133.925
 16.1956  16814.5  129.379
 16.3936  16611.1  127.772
 16.5916  16054.5  126.239
 16.7896  16093  126.446
 16.9876  15979.3  127.455
 17.1856  15904  125.532
 17.3836  15530.6  123.946
 17.5816  14838.3  121.634
 17.7796  14801.6  121.413
 17.9776  14446.6  120.728
 18.1756  14525.1  119.782
 18.3736  14228.3  119.058
 18.5716  14185.4  118.629
 18.7696  14142.5  118.024
 18.9676  13782.9  116.32
 19.1656  13830.3  117.083
 19.3636  13700.9  116.729
 19.5616  13670.2  116.76
 19.7596  13666.4  116.155
 19.9576  13870.3  117.075
 20.1556  14880.5  121.807
 20.3536  13869.5  116.961
 20.5516  13443  115.605
 20.7496  13034.9  113.773
 20.9476  12986.4  113.309
 21.1456  13113.4  114.195
 21.3436  12663.9  112.175
 21.5416  12731.3  112.474
 21.7396  12642.3  111.924
 21.9376  12670.8  111.818
 22.1356  12714.1  112.133
 22.3336  12591.7  111.896
 22.5316  12652.2  112.252
 22.7296  12522.2  111.042
 22.9276  12676.7  112.399
 23.1256  12720.5  112.065
 23.3236  12571.4  111.935
 23.5216  12589.9  111.691
 23.7196  12247.6  110.109
 23.9176  12265.2  109.932
 24.1156  12130.1  109.805
 24.3136  11738.4  108.809
 24.5116  11820.8  108.717
 24.7096  11504.6  107.072
 24.9076  11217.8  105.745
 25.1056  10914.8  104.773
 25.3036  11001.7  104.706
 25.5016  10887  104.189
 25.6996  10926.6  103.965
 25.8976  10871.2  104.132
 26.0956  10917.6  104.375
 26.2936  10827.8  103.597
 26.4916  10790.8  103.299
 26.6896  10608.6  102.718
 26.8876  10540.3  102.233
 27.0856  10368.4  101.455
 27.2836  10406.9  101.532
 27.4816  10183.4  100.372
 27.6796  9976.72  99.7202
 27.8776  9949.93  99.4426
 28.0756  10118.2  100.569
 28.2736  9983.67  99.4815
 28.4716  9748.62  98.3521
 28.6696  9758.3  98.2507
 28.8676  9664.22  98.1204
 29.0656  9532.68  97.4238
 29.2636  9617.17  97.6473
 29.4616  9446.98  96.9738
 29.6596  9543.23  97.0338
 29.8576  9457.32  97.2796
 30.0556  9426.23  96.9951
 30.2536  9484.18  97.0894
 30.4516  9422.5  96.4143
 30.6496  9401.81  96.0367
 30.8476  9302.58  95.9633
 31.0456  9208.83  95.44
 31.2436  9288.15  95.1254
 31.4416  9220.5  94.9601
 31.6396  9272.57  95.2748
 31.8376  9144.38  94.1675
 32.0356  9021.04  94.0771
 32.2336  8776.19  92.1977
 32.4316  8869.59  93.0961
 32.6296  8852.97  92.8459
 32.8276  8929.95  93.019
 33.0256  8809.36  92.4671
 33.2236  8675.94  91.9032
 33.4216  8886.28  92.7112
 33.6196  8787.57  92.4873
 33.8176  8719.26  92.289
 34.0156  8706.95  91.8368
 34.2136  8759.86  92.1522
 34.4116  8594.86  91.4334
 34.6096  8434.22  90.4595
 34.8076  8395.85  90.6599
 35.0056  8515.75  90.9935
 35.2036  8424.34  90.7058
 35.4016  8371.77  90.3531
 35.5996  8425.22  90.6737
 35.7976  8184.07  89.6338
 35.9956  8285.1  89.8408
 36.1936  8326.95  89.9364
 36.3916  8167.48  89.2417
 36.5896  8120.94  89.9403
 36.7876  8245.93  90.054
 36.9856  8046.36  88.9799
 37.1836  8005.89  87.8735
 37.3816  8073.76  88.6063
 37.5796  7987.45  89.8326
 37.7776  7867.58  87.5441
 37.9756  7871.11  87.4463
 38.1736  8067.63  88.7329
 38.3716  7866.44  87.8914
 38.5696  7864.2  88.2457
 38.7676  7621.04  86.3948
 38.9656  7806.48  87.0773
 39.1636  7708.84  86.784
 39.3616  7853.08  87.5373
 39.5596  7766.74  87.8832
 39.7576  7636.81  86.5395
 39.9556  7880.13  87.5509
 40.1536  7953.03  88.1506
 40.3516  7824.17  87.4498
 40.5496  7803.09  87.5867
 40.7476  7862.34  87.9191
 40.9456  7969.46  88.2642
 41.1436  7826.44  87.1951
 41.3416  7854.88  87.6934
 41.5396  7763.72  86.9935
 41.7376  7914.26  88.0933
 41.9356  7762.46  87.1052
 42.1336  7752.3  87.1889
 42.3316  7748.89  87.3765
 42.5296  7679.32  86.4973
 42.7276  7703.25  86.8754
 42.9256  7814.64  87.3717
 43.1236  7728.74  86.9966
 43.3216  7717.13  86.6811
 43.5196  7569.78  85.9152
 43.7176  7594.67  86.4424
 43.9156  7536.57  86.0337
 44.1136  7589.48  85.8882
 44.3116  7510.45  85.4509
 44.5096  7402.74  85.1364
 44.7076  7372.39  84.8989
 44.9056  7399.97  84.9172
 45.1036  7346.93  84.2433
 45.3016  7307.31  84.5103
 45.4996  7249.83  84.116
 45.6976  7164.92  83.7986
 45.8956  7208.28  83.8694
 46.0936  7325.74  84.5518
 46.2916  7303.72  84.4067
 46.4896  7287.21  84.3487
 46.6876  7059.87  83.7157
 46.8856  7114.57  83.3055
 47.0836  7011.86  82.9456
 47.2816  7038.39  82.9911
 47.4796  6944.71  82.5407
 47.6776  6960.46  83.5664
 47.8756  6949.83  82.686
 48.0736  6967.25  83.2364
 48.2716  6795.48  82.0299
 48.4696  6916.98  82.3596
 48.6676  6871.08  82.6628
 48.8656  6897.37  82.542
 49.0636  6830.62  82.0876
 49.2616  6649.5  81.0408
 49.4596  6754.42  81.2454
 49.6576  6653.38  80.8524
 49.8556  6742.3  81.413
 50.0536  6665.64  81.3848
 50.2516  6678.67  81.5952
 50.4496  6684.36  81.2931
 50.6476  6739.83  81.3164
 50.8456  6741.28  81.4175
 51.0436  6479.56  80.2531
 51.2416  6468.12  79.8618
 51.4396  6438.52  80.0696
 51.6376  6524.79  80.4263
 51.8356  6548  80.2092
 52.0336  6394.64  79.7502
 52.2316  6297.06  79.4839
 52.4296  6391.69  79.7729
 52.6276  6348.74  79.6213
 52.8256  6329.93  79.0681
 53.0236  6309.72  79.5762
 53.2216  6257.8  79.2828
 53.4196  6178.16  78.7
 53.6176  6101.19  78.6751
 53.8156  6239.34  79.235
 54.0136  6179.59  79.0317
 54.2116  6198.8  78.816
 54.4096  6210.68  78.9468
 54.6076  6122.92  78.7264
 54.8056  6118.89  78.4924
 55.0036  6125.89  78.9281
 55.2016  6124.13  78.5121
 55.3996  6167.6  78.7143
 55.5976  6142.24  78.729
 55.7956  6118.12  78.4011
 55.9936  6080.33  78.2876
 56.1916  6135.93  78.6653
 56.3896  6043.3  78.0651
 56.5876  6044.32  78.6061
 56.7856  6048.17  78.1302
 56.9836  6051.53  77.9319
 57.1816  6039.6  78.1359
 57.3796  6054.54  78.1264
 57.5776  6046.43  78.0061
 57.7756  6028.07  78.5177
 57.9736  6049.21  78.3348
 58.1716  6062.82  78.6573
 58.3696  5936.5  77.5982
 58.5676  6029.09  77.6801
 58.7656  6008.88  78.2149
 58.9636  6132.68  79.0536
 59.1616  6021.31  78.459
 59.3596  6050.81  77.9109
 59.5576  6103.26  78.3046
 59.7556  5975.21  77.8948
 59.9536  6172.35  79.0672
 60.1516  6165.18  79.8789
 60.1996  6094.7  82.5814

File: 17_Da_f00104.xye
# /beamlines/bl04/projects/cycle2025-II/20250340211-lsimonelli/DATA/IS17_D/17_Da_f00104.xye : mythproc.py merge -s 0.006 -l 0.5 -f /beamlines/bl04/inhouse/ff/FlatField/ff_20Nov2024rod8mm60s_17keV.raw -b True -c true -o xye /beamlines/bl04/projects/cycle2025-II/20250340211-lsimonelli/DATA/IS17_D/17_Da_00104.dat
# IsMon = [6754040, 6751205, 6751360]  IsPos = [-1.4999, -2.4884, -3.4988]
# Wave = 0.4962  CalPath /beamlines/bl04/projects/cycle2025-II/20250340211-lsimonelli/DATA/Align/Si_Pos1_25keV_f00001.cal
# Date = 2025-09-24_22:32:11 Dt = 4.8000  Bin = 0.0060  <imon> = 6752202 +/- 1301 (Min/Max) 6751205 / 6754040
# icurr 249.7678  mocoIn 1.7043E-05  mocoOut 0.7991  i15 7.07349e+06  imon 6.7522e+06  i7 6.0000  iEMpd_timer 4.8000  iEMpd_1 3.2926E-08  iEMpd_2 7.8118E-08  iEMpd_3 1.7362E-08  iEMpd_4 4.8529E-08  iEMhp_timer 4.8000  iEMhp_1 4.8791E-06  iEMhp_2 -2.5616E-08  iEMhp_3 -2.5210E-08  iEMhp_4 -2.0171E-08
#      9776
 1.7416  70212.6  265.017
 1.9396  45937.1  214.638
 2.1376  33180.8  182.414
 2.3356  29936.6  172.904
 2.5336  28204.5  168.418
 2.7316  26724.1  164.063
 2.9296  25381.2  160.063
 3.1276  24847.5  157.905
 3.3256  24410.3  156.184
 3.5236  25929.4  160.777
 3.7216  23732.1  155.06
 3.9196  23138.4  152.327
 4.1176  22856  151.165
 4.3156  24145.3  155.543
 4.5136  26691  162.515
 4.7116  27477  166.025
 4.9096  26799  163.403
 5.1076  26501.9  163.064
 5.3056  26943.1  164.158
 5.5036  26645.3  163.139
 5.7016  27051.5  164.344
 5.8996  27674.4  165.441
 6.0976  28284.2  168.683
 6.2956  28890.2  169.826
 6.4936  29441.1  170.62
 6.6916  29883.9  172.905
 6.8896  30692.9  175.084
 7.0876  31535.1  178.199
 7.2856  31578.1  177.378
 7.4836  31929.4  177.698
 7.6816  32679.2  180.304
 7.8796  34290.7  184.703
 8.0776  35358.4  188.538
 8.2756  37503.5  192.772
 8.4736  37779.6  193.289
 8.6716  37137.4  192.273
 8.8696  37017.3  192.401
 9.0676  36356.5  190.052
 9.2656  35060.3  187.312
 9.4636  34659.5  184.661
 9.6616  33841.1  183.241
 9.8596  32500.4  179.039
 10.0576  30803.8  174.969
 10.2556  29794.6  172.506
 10.4536  28589.1  168.59
 10.6516  27827.2  166.521
 10.8496  27052.8  163.609
 11.0476  26303.6  161.358
 11.2456  25750.4  160.177
 11.4436  25755.9  159.366
 11.6416  27049.6  163.696
 11.8396  24543.1  156.118
 12.0376  24497.7  155.628
 12.2356  23855.3  153.974
 12.4336  24047.6  154.136
 12.6316  23575.4  152.87
 12.8296  23790.4  153.215
 13.0276  24454.7  155.523
 13.2256  24572.8  156.261
 13.4236  24565.6  155.998
 13.6216  24322.1  155.238
 13.8196  24332.6  155.048
 14.0176  24104  154.608
 14.2156  23274.4  150.964
 14.4136  22433.5  149.591
 14.6116  22036.6  147.467
 14.8096  21515.1  145.705
 15.0076  20208.2  145.003
 15.2056  19910.7  139.773
 15.4036  18865  136.884
 15.6016  18542.5  134.787
 15.7996  18245.8  133.992
 15.9976  17370  133.648
 16.1956  16880.3  129.634
 16.3936  16712.3  128.162
 16.5916  16094  126.394
 16.7896  16236.7  127.003
 16.9876  16030.4  127.665
 17.1856  16094.4  126.278
 17.3836  15511  123.861
 17.5816  14935.6  122.027
 17.7796  14825.7  121.512
 17.9776  14491.1  120.911
 18.1756  14629  120.204
 18.3736  14346.4  119.549
 18.5716  14151  118.482
 18.7696  14286.8  118.627
 18.9676  13925.2  116.918
 19.1656  13905.1  117.395
 19.3636  13819.9  117.23
 19.5616  13853  117.539
 19.7596  13720.1  116.38
 19.9576  14031.1  117.752
 20.1556  14897.8  121.879
 20.3536  13944.3  117.284
 20.5516  13711.1  116.75
 20.7496  13159.4  114.313
 20.9476  13033.5  113.508
 21.1456  13116.4  114.213
 21.3436  12856.7  113.023
 21.5416  12735.3  112.494
 21.7396  12659.9  111.998
 21.9376  12756.6  112.194
 22.1356  12686.8  112.014
 22.3336  12648.2  112.146
 22.5316  12664  112.301
 22.7296  12609.8  111.417
 22.9276  12532.4  111.76
 23.1256  12645  111.736
 23.3236  12720.3  112.612
 23.5216  12614.1  111.797
 23.7196  12456.1  111.038
 23.9176  12288.9  110.047
 24.1156  12023.4  109.323
 24.3136  11728.8  108.758
 24.5116  11835.2  108.78
 24.7096  11490  107.002
 24.9076  11262.4  105.958
 25.1056  10913.1  104.764
 25.3036  11132.8  105.323
 25.5016  11022.9  104.838
 25.6996  10912.9  103.896
 25.8976  10841.8  103.99
 26.0956  10829  103.954
 26.2936  10861.4  103.755
 26.4916  10921.4  103.92
 26.6896  10542.4  102.395
 26.8876  10556.5  102.314
 27.0856  10513.7  102.152
 27.2836  10297.3  100.996
 27.4816  10193.2  100.418
 27.6796  10201.8  100.832
 27.8776  10097.9  100.177
 28.0756  10098.1  100.472
 28.2736  10013.2  99.6287
 28.4716  9792.66  98.5657
 28.6696  9770.97  98.3149
 28.8676  9759.61  98.5997
 29.0656  9697.13  98.2653
 29.2636  9708.16  98.106
 29.4616  9636.35  97.9407
 29.6596  9660.52  97.6299
 29.8576  9418.96  97.0825
 30.0556  9488.84  97.3178
 30.2536  9638.36  97.876
 30.4516  9508.96  96.8602
 30.6496  9442.38  96.2456
 30.8476  9335.61  96.1421
 31.0456  9288.13  95.8541
 31.2436  9437.78  95.8884
 31.4416  9083.33  94.2457
 31.6396  9101.63  94.3918
 31.8376  9098.06  93.925
 32.0356  9058.16  94.2702
 32.2336  8942.97  93.0679
 32.4316  8959.1  93.5664
 32.6296  8917.43  93.186
 32.8276  8953.86  93.1449
 33.0256  8867.31  92.7765
 33.2236  8793.5  92.5228
 33.4216  8827.82  92.3962
 33.6196  8904.22  93.094
 33.8176  8808.75  92.7603
 34.0156  8688.03  91.7288
 34.2136  8849.9  92.6254
 34.4116  8617.83  91.5564
 34.6096  8513.24  90.8738
 34.8076  8489.91  91.1592
 35.0056  8511.13  90.9649
 35.2036  8515.94  91.1905
 35.4016  8476.66  90.9185
 35.5996  8284.33  89.9101
 35.7976  8385.19  90.7315
 35.9956  8331.56  90.0893
 36.1936  8206.63  89.2815
 36.3916  8244.37  89.6627
 36.5896  8170.73  90.2106
 36.7876  8119.06  89.3542
 36.9856  8142.61  89.5157
 37.1836  8223.31  89.0592
 37.3816  8136.43  88.9491
 37.5796  8085.8  90.3791
 37.7776  7976.3  88.1514
 37.9756  8081.24  88.6056
 38.1736  8055.55  88.6667
 38.3716  8016.67  88.728
 38.5696  7938.36  88.6711
 38.7676  7780.88  87.2948
 38.9656  7868.5  87.4199
 39.1636  7664.46  86.5374
 39.3616  7964.36  88.152
 39.5596  7693.68  87.4723
 39.7576  7787.25  87.3838
 39.9556  7835.78  87.3035
 40.1536  7872.82  87.7058
 40.3516  7950.09  88.1491
 40.5496  7973.06  88.5391
 40.7476  7944.27  88.3854
 40.9456  8070.05  88.8188
 41.1436  7976.4  88.0292
 41.3416  7849.38  87.6626
 41.5396  7753.99  86.9348
 41.7376  7828.35  87.6176
 41.9356  7780.59  87.2096
 42.1336  7867.02  87.8314
 42.3316  7737.55  87.312
 42.5296  7904.22  87.7586
 42.7276  7839.05  87.6344
 42.9256  7749.02  86.9979
 43.1236  7748.49  87.1071
 43.3216  7648.31  86.2925
 43.5196  7668.43  86.4728
 43.7176  7585.17  86.3873
 43.9156  7590.75  86.3374
 44.1136  7458.81  85.1458
 44.3116  7580.92  85.8495
 44.5096  7495.85  85.6767
 44.7076  7466.28  85.439
 44.9056  7423.98  85.0555
 45.1036  7346.87  84.2432
 45.3016  7320.37  84.5867
 45.4996  7300.22  84.4078
 45.6976  7168.9  83.8237
 45.8956  7307.12  84.4418
 46.0936  7365.01  84.7742
 46.2916  7295.56  84.3547
 46.4896  7327.76  84.574
 46.6876  7232.34  84.7297
 46.8856  7100.49  83.2187
 47.0836  7118.96  83.5836
 47.2816  6985.68  82.6791
 47.4796  7118.58  83.5703
 47.6776  6973.36  83.6429
 47.8756  6955.33  82.7211
 48.0736  7018.32  83.5424
 48.2716  6855.94  82.3911
 48.4696  7022.43  82.9805
 48.6676  6922.51  82.973
 48.8656  6964  82.9384
 49.0636  6858.93  82.2624
 49.2616  6784.54  81.8574
 49.4596  6923.6  82.2486
 49.6576  6680.35  81.0184
 49.8556  6730.15  81.3407
 50.0536  6679.48  81.4687
 50.2516  6760.89  82.0951
 50.4496  6725.68  81.5419
 50.6476  6652.09  80.786
 50.8456  6672.6  80.9929
 51.0436  6594.7  80.9604
 51.2416  6524.32  80.2012
 51.4396  6318.52  79.3203
 51.6376  6586.59  80.7943
 51.8356  6528.21  80.0877
 52.0336  6394.69  79.7531
 52.2316  6431.51  80.3274
 52.4296  6431.35  80.0233
 52.6276  6394.75  79.9129
 52.8256  6545.58  80.3923
 53.0236  6363.74  79.914
 53.2216  6300.54  79.5467
 53.4196  6183.21  78.7224
 53.6176  6191.95  79.2565
 53.8156  6228.13  79.1589
 54.0136  6304.96  79.8332
 54.2116  6204.48  78.8521
 54.4096  6245.07  79.159
 54.6076  6224.55  79.3792
 54.8056  6179.97  78.8849
 55.0036  6129.87  78.9468
 55.2016  6147.49  78.611
 55.3996  6176.37  78.7684
 55.5976  6168.93  78.908
 55.7956  6184.2  78.823
 55.9936  6099.49  78.4053
 56.1916  6039.39  78.0389
 56.3896  6062.01  78.1876
 56.5876  6086.51  78.8766
 56.7856  6195.95  79.0642
 56.9836  5988  77.5204
 57.1816  6140.23  78.8762
 57.3796  6129.55  78.6094
 57.5776  6038.62  77.9474
 57.7756  6073.53  78.8147
 57.9736  6017.59  78.1295
 58.1716  6105.22  78.934
 58.3696  6035.53  78.2435
 58.5676  6075.9  77.9783
 58.7656  6037.54  78.4037
 58.9636  6149.62  79.1625
 59.1616  6165.59  79.3802
 59.3596  6242.76  79.1392
 59.5576  6216.22  79.0288
 59.7556  5969.74  77.8621
 59.9536  6207.38  79.2942
 60.1516  6174.34  79.9412
 60.1996  0.0000000E+00  0.0000000E+00