Folder: echemistpy/docs/examples/opeando_xrd/IS17_D/Data/IS17_D_fresh (part 3)

File: 17_D_fresh_f00008.xye
# /beamlines/bl04/projects/cycle2025-II/20250340211-lsimonelli/DATA/IS17_D_fresh/17_D_fresh_f00008.xye : mythproc.py merge -s 0.006 -l 0.5 -f /beamlines/bl04/inhouse/ff/FlatField/ff_20Nov2024rod8mm60s_17keV.raw -b True -c true -o xye /beamlines/bl04/projects/cycle2025-II/20250340211-lsimonelli/DATA/IS17_D_fresh/17_D_fresh_00008.dat
# IsMon = [6763472, 6761580, 6760198]  IsPos = [-1.4999, -2.4884, -3.4988]
# Wave = 0.4962  CalPath /beamlines/bl04/projects/cycle2025-II/20250340211-lsimonelli/DATA/Align/Si_Pos1_25keV_f00001.cal
# Date = 2025-09-24_23:10:47 Dt = 4.8000  Bin = 0.0060  <imon> = 6761750 +/- 1342 (Min/Max) 6760198 / 6763472
# icurr 249.9910  mocoIn 1.7050E-05  mocoOut 0.8002  i15 7.08037e+06  imon 6.76175e+06  i7 6.3333  iEMpd_timer 4.8000  iEMpd_1 3.6206E-08  iEMpd_2 7.8273E-08  iEMpd_3 1.6427E-08  iEMpd_4 4.6869E-08  iEMhp_timer 4.8000  iEMhp_1 4.8834E-06  iEMhp_2 -2.5229E-08  iEMhp_3 -2.5557E-08  iEMhp_4 -2.1092E-08
#      9776
 1.7416  69500.4  263.671
 1.9396  45796.4  214.305
 2.1376  33002.7  181.926
 2.3356  29967.2  172.994
 2.5336  28308.3  168.729
 2.7316  27203.5  165.527
 2.9296  26102.7  162.317
 3.1276  25082.1  158.636
 3.3256  24930.4  157.834
 3.5236  26659.6  163.018
 3.7216  24430  157.322
 3.9196  23894.1  154.798
 4.1176  23689  153.9
 4.3156  24946.1  158.098
 4.5136  27500.2  164.954
 4.7116  28540.1  169.208
 4.9096  28049.5  167.169
 5.1076  27719.8  166.768
 5.3056  28207.4  167.967
 5.5036  28249.8  167.966
 5.7016  28433.3  168.487
 5.8996  29271.9  170.134
 6.0976  29840.2  173.258
 6.2956  30578.6  174.715
 6.4936  31524.2  176.566
 6.6916  32051.7  179.064
 6.8896  32873.4  181.199
 7.0876  34066.4  185.209
 7.2856  34068.8  184.238
 7.4836  34576.4  184.914
 7.6816  35341.2  187.506
 7.8796  37285.7  192.596
 8.0776  38942  197.862
 8.2756  40674.5  200.76
 8.4736  41511.5  202.611
 8.6716  40914.9  201.805
 8.8696  40426.7  201.071
 9.0676  39789.6  198.829
 9.2656  38520  196.343
 9.4636  38426.1  194.438
 9.6616  37691  193.386
 9.8596  36447.3  189.592
 10.0576  34792.6  185.939
 10.2556  33360.5  182.517
 10.4536  31818.5  177.845
 10.6516  31213  176.334
 10.8496  30095.4  172.56
 11.0476  29566.2  171.064
 11.2456  28738.4  169.208
 11.4436  28260.7  166.943
 11.6416  29611.7  171.272
 11.8396  26903.2  163.446
 12.0376  27050.4  163.535
 12.2356  26671  162.796
 12.4336  26723.4  162.478
 12.6316  26238.8  161.256
 12.8296  26561  161.892
 13.0276  26998.3  163.402
 13.2256  27321.5  164.765
 13.4236  27183.6  164.104
 13.6216  26896.8  163.247
 13.8196  26924.8  163.093
 14.0176  26503.2  162.118
 14.2156  25815.3  159.003
 14.4136  24795  157.26
 14.6116  24405.2  155.186
 14.8096  23778.3  153.177
 15.0076  22456.3  152.823
 15.2056  22267.1  147.806
 15.4036  21168.2  145.003
 15.6016  20754.7  142.607
 15.7996  20228.8  141.084
 15.9976  19349.1  141.097
 16.1956  18740.3  136.594
 16.3936  18292  134.084
 16.5916  17843.8  133.093
 16.7896  17837.7  133.13
 16.9876  17779.1  134.433
 17.1856  17812.1  132.834
 17.3836  17235.6  130.56
 17.5816  16564  128.501
 17.7796  16511.1  128.218
 17.9776  16060.2  127.293
 18.1756  16137.2  126.236
 18.3736  15955  126.073
 18.5716  15747.1  124.989
 18.7696  15724.1  124.45
 18.9676  15330.8  122.678
 19.1656  15306.6  123.161
 19.3636  15374.9  123.647
 19.5616  15183.9  123.042
 19.7596  15174  122.386
 19.9576  15353.7  123.171
 20.1556  16208.3  127.124
 20.3536  15582.3  123.987
 20.5516  14943.1  121.882
 20.7496  14647  120.604
 20.9476  14409.3  119.354
 21.1456  14642  120.674
 21.3436  14266.5  119.059
 21.5416  14158.4  118.601
 21.7396  14206.4  118.644
 21.9376  13980.2  117.456
 22.1356  14063.8  117.93
 22.3336  14147.6  118.606
 22.5316  13892.8  117.63
 22.7296  14128.6  117.956
 22.9276  13904.7  117.718
 23.1256  14200.7  118.414
 23.3236  13818.7  117.364
 23.5216  13627.4  116.199
 23.7196  13460.5  115.432
 23.9176  13529.2  115.463
 24.1156  13172.7  114.432
 24.3136  12901.8  114.064
 24.5116  12956.5  113.813
 24.7096  12564.2  111.888
 24.9076  12377.4  111.078
 25.1056  12056.2  110.105
 25.3036  12186.5  110.196
 25.5016  12092.1  109.8
 25.6996  12082  109.318
 25.8976  11901.7  108.948
 26.0956  11941.4  109.164
 26.2936  11898.1  108.592
 26.4916  12049.2  109.16
 26.6896  11663.3  107.694
 26.8876  11482.2  106.704
 27.0856  11487  106.792
 27.2836  11397.4  106.258
 27.4816  11187  105.195
 27.6796  11130.8  105.327
 27.8776  10962.5  104.375
 28.0756  11077.4  105.226
 28.2736  11032.5  104.577
 28.4716  10676.2  102.925
 28.6696  10744.2  103.093
 28.8676  10675.8  103.125
 29.0656  10635.4  102.907
 29.2636  10680.5  102.902
 29.4616  10465.7  102.067
 29.6596  10759.3  103.032
 29.8576  10451.3  102.263
 30.0556  10274.9  101.265
 30.2536  10475.9  102.033
 30.4516  10259.8  100.613
 30.6496  10013.3  99.1169
 30.8476  10116.5  100.085
 31.0456  10103  99.9739
 31.2436  10139.4  99.3918
 31.4416  10103.2  99.392
 31.6396  10121  99.5274
 31.8376  10124  99.0806
 32.0356  9960.43  98.8622
 32.2336  9906.51  97.9449
 32.4316  9823.91  97.9746
 32.6296  9823.16  97.7984
 32.8276  9760.79  97.2598
 33.0256  9563.39  96.3359
 33.2236  9653.38  96.9399
 33.4216  9542.33  96.0629
 33.6196  9649.54  96.9102
 33.8176  9510.45  96.3881
 34.0156  9455.77  95.7041
 34.2136  9451.96  95.721
 34.4116  9292.27  95.0803
 34.6096  9351.6  95.2457
 34.8076  9057.65  94.1514
 35.0056  9114.73  94.1266
 35.2036  9170.27  94.642
 35.4016  9061.46  93.9992
 35.5996  8965.58  93.5349
 35.7976  8902.05  93.4947
 35.9956  8949.54  93.3737
 36.1936  8848.75  92.7125
 36.3916  8780.31  92.535
 36.5896  8806.16  93.6637
 36.7876  8682.15  92.3869
 36.9856  8505.58  91.481
 37.1836  8535.11  90.7177
 37.3816  8511.19  90.9769
 37.5796  8522.88  92.8002
 37.7776  8409.74  90.5126
 37.9756  8612.19  91.4778
 38.1736  8500.43  91.0841
 38.3716  8388.81  90.7589
 38.5696  8466.95  91.5766
 38.7676  8184.95  89.5304
 38.9656  8433.29  90.4977
 39.1636  8236.32  89.7085
 39.3616  8318.58  90.0893
 39.5596  8098.81  89.7453
 39.7576  8093.66  89.0893
 39.9556  8248.89  89.5723
 40.1536  8215.68  89.5973
 40.3516  8251.41  89.8047
 40.5496  8255.94  90.0949
 40.7476  8186.3  89.7193
 40.9456  8348.42  90.3467
 41.1436  8244.47  89.4955
 41.3416  8169.52  89.4332
 41.5396  8077.33  88.7278
 41.7376  8068.3  88.9465
 41.9356  7989.81  88.3662
 42.1336  8057.38  88.8896
 42.3316  8040.85  89.0059
 42.5296  8009.64  88.3399
 42.7276  8044.6  88.7724
 42.9256  8040.76  88.6247
 43.1236  7955.14  88.2619
 43.3216  7980.99  88.1523
 43.5196  7813.22  87.284
 43.7176  7966.11  88.5355
 43.9156  7899.99  88.0831
 44.1136  7807.88  87.1142
 44.3116  7840.06  87.3091
 44.5096  7765.54  87.2061
 44.7076  7850.77  87.6107
 44.9056  7730.58  86.7803
 45.1036  7682.54  86.1447
 45.3016  7558.5  85.953
 45.4996  7559.85  85.8959
 45.6976  7620.77  86.4206
 45.8956  7612.9  86.1823
 46.0936  7481.05  85.4324
 46.2916  7460.75  85.3072
 46.4896  7549.91  85.8532
 46.6876  7438.85  85.9306
 46.8856  7602.07  86.1268
 47.0836  7426.78  85.3725
 47.2816  7562.02  86.011
 47.4796  7604.1  86.3664
 47.6776  7496  86.7164
 47.8756  7437.32  85.5168
 48.0736  7485.47  86.2722
 48.2716  7410.59  85.6619
 48.4696  7587.99  86.2677
 48.6676  7514.99  86.4486
 48.8656  7446.31  85.7868
 49.0636  7387.21  85.3812
 49.2616  7363.9  85.2791
 49.4596  7448.99  85.3316
 49.6576  7468.97  85.6795
 49.8556  7425.49  85.4163
 50.0536  7328.88  85.3404
 50.2516  7271.84  85.1417
 50.4496  7445.52  85.7798
 50.6476  7368.78  85.0117
 50.8456  7289.48  84.6612
 51.0436  7367.67  85.5702
 51.2416  7330.65  85.0234
 51.4396  7229.6  84.8492
 51.6376  7257.34  84.8251
 51.8356  7299.16  84.6801
 52.0336  6955.62  83.1724
 52.2316  6970.92  83.6272
 52.4296  7116.97  84.1729
 52.6276  7133.35  84.3975
 52.8256  7023.57  83.2652
 53.0236  7122.64  84.5333
 53.2216  7051.4  84.141
 53.4196  6971.51  83.5977
 53.6176  6930.62  83.8394
 53.8156  6978.89  83.7891
 54.0136  7031.98  84.3007
 54.2116  6930.27  83.3273
 54.4096  6987.99  83.7388
 54.6076  6914.98  83.661
 54.8056  6894.98  83.3201
 55.0036  6923.22  83.9
 55.2016  6912.76  83.3551
 55.3996  6932.75  83.4557
 55.5976  6930.5  83.6329
 55.7956  6842.9  82.9143
 55.9936  6937.79  83.627
 56.1916  6894.36  83.3854
 56.3896  6915.47  83.5084
 56.5876  6804.01  83.3997
 56.7856  6815.32  82.9273
 56.9836  6770.13  82.4274
 57.1816  6780.24  82.8857
 57.3796  6888  83.3285
 57.5776  6888.06  83.2646
 57.7756  6818.4  83.5095
 57.9736  6825.92  83.2112
 58.1716  6867.5  83.7132
 58.3696  6924.59  83.807
 58.5676  6906.56  83.1149
 58.7656  6845.74  83.4887
 58.9636  6956.6  84.189
 59.1616  6819.24  83.4967
 59.3596  6911.93  83.2777
 59.5576  6802.31  82.6749
 59.7556  6834.26  83.3138
 59.9536  6950.7  83.912
 60.1516  6870.87  84.3342
 60.1996  0.0000000E+00  0.0000000E+00

File: 17_D_fresh_f00009.xye
# /beamlines/bl04/projects/cycle2025-II/20250340211-lsimonelli/DATA/IS17_D_fresh/17_D_fresh_f00009.xye : mythproc.py merge -s 0.006 -l 0.5 -f /beamlines/bl04/inhouse/ff/FlatField/ff_20Nov2024rod8mm60s_17keV.raw -b True -c true -o xye /beamlines/bl04/projects/cycle2025-II/20250340211-lsimonelli/DATA/IS17_D_fresh/17_D_fresh_00009.dat
# IsMon = [6785564, 6790569, 6789166]  IsPos = [-1.4999, -2.4884, -3.4988]
# Wave = 0.4962  CalPath /beamlines/bl04/projects/cycle2025-II/20250340211-lsimonelli/DATA/Align/Si_Pos1_25keV_f00001.cal
# Date = 2025-09-25_03:21:54 Dt = 4.8000  Bin = 0.0060  <imon> = 6788433 +/- 2108 (Min/Max) 6785564 / 6790569
# icurr 252.1271  mocoIn 1.7202E-05  mocoOut 0.8066  i15 7.10599e+06  imon 6.78843e+06  i7 6.6667  iEMpd_timer 4.8000  iEMpd_1 3.5229E-08  iEMpd_2 7.9096E-08  iEMpd_3 1.7367E-08  iEMpd_4 4.8467E-08  iEMhp_timer 4.8000  iEMhp_1 4.9263E-06  iEMhp_2 -2.5139E-08  iEMhp_3 -2.5193E-08  iEMhp_4 -2.1774E-08
#      9776
 1.7416  69700.5  264.14
 1.9396  45588.7  213.896
 2.1376  32746  181.278
 2.3356  29359.5  171.289
 2.5336  27328  165.838
 2.7316  25959.3  161.712
 2.9296  25162.4  159.381
 3.1276  24612.1  157.178
 3.3256  24646.9  156.933
 3.5236  26418  162.276
 3.7216  24266.6  156.793
 3.9196  23928.9  154.919
 4.1176  23867.9  154.493
 4.3156  25106.8  158.603
 4.5136  27453.1  164.808
 4.7116  28513.4  169.129
 4.9096  28046.1  167.155
 5.1076  27807.2  167.043
 5.3056  28572.4  169.046
 5.5036  28442.3  168.531
 5.7016  29019  170.213
 5.8996  29695.6  171.369
 6.0976  30328.6  174.688
 6.2956  31056.2  176.063
 6.4936  31945  177.735
 6.6916  32251.4  179.619
 6.8896  33136.4  181.927
 7.0876  34641.8  186.769
 7.2856  34450.2  185.267
 7.4836  34970.1  185.957
 7.6816  35919.9  189.032
 7.8796  37821.6  193.939
 8.0776  39337.7  198.831
 8.2756  41242.5  202.127
 8.4736  42111.9  204.039
 8.6716  41724.6  203.758
 8.8696  41627.5  204.058
 9.0676  40883.4  201.558
 9.2656  40275.7  200.79
 9.4636  39785.8  197.854
 9.6616  38691.2  195.944
 9.8596  37774.6  193.026
 10.0576  35871.2  188.805
 10.2556  34542.7  185.735
 10.4536  32913.1  180.895
 10.6516  32345  179.517
 10.8496  31148.9  175.556
 11.0476  30670.9  174.228
 11.2456  29928.2  172.673
 11.4436  29828.8  171.507
 11.6416  29605.1  171.254
 11.8396  27722  165.933
 12.0376  27776.7  165.702
 12.2356  27327.7  164.786
 12.4336  27113.1  163.656
 12.6316  26839.3  163.116
 12.8296  27299.2  164.126
 13.0276  28065.8  166.595
 13.2256  27824.5  166.273
 13.4236  27767.5  165.852
 13.6216  27276.6  164.405
 13.8196  27506.2  164.839
 14.0176  27123.3  163.995
 14.2156  26707.1  161.719
 14.4136  25266.9  158.747
 14.6116  24923.8  156.831
 14.8096  24147.6  154.356
 15.0076  22841.5  154.135
 15.2056  22450.2  148.395
 15.4036  21678.2  146.715
 15.6016  21278.9  144.373
 15.7996  20455  141.846
 15.9976  19649.8  142.174
 16.1956  18973.8  137.452
 16.3936  18460.3  134.713
 16.5916  18141.9  134.209
 16.7896  18217.8  134.555
 16.9876  18179.1  135.948
 17.1856  18118.5  133.975
 17.3836  17517  131.626
 17.5816  16932.2  129.924
 17.7796  16663.6  128.824
 17.9776  16549.3  129.22
 18.1756  16714  128.493
 18.3736  16623.8  128.676
 18.5716  16265.7  127.026
 18.7696  16405.7  127.121
 18.9676  15894.1  124.921
 19.1656  15825.7  125.239
 19.3636  15827.8  125.448
 19.5616  15684.8  125.065
 19.7596  15764.1  124.757
 19.9576  16255.6  126.737
 20.1556  16188.2  127.039
 20.3536  15408.3  123.282
 20.5516  15286.3  123.273
 20.7496  14817.4  121.307
 20.9476  14678.6  120.474
 21.1456  14923  121.813
 21.3436  14691  120.815
 21.5416  14405  119.628
 21.7396  14426.3  119.548
 21.9376  14350.6  118.991
 22.1356  14578.1  120.058
 22.3336  14416.5  119.705
 22.5316  14195.2  118.877
 22.7296  14336.8  118.794
 22.9276  14397.1  119.762
 23.1256  14478  119.544
 23.3236  14106.3  118.601
 23.5216  13817  117.02
 23.7196  13591.9  116.004
 23.9176  13702.3  116.225
 24.1156  13500.3  115.856
 24.3136  13158.8  115.199
 24.5116  13309.3  115.364
 24.7096  12945.7  113.584
 24.9076  12650.7  112.308
 25.1056  12492.4  112.091
 25.3036  12408.2  111.189
 25.5016  12267.1  110.591
 25.6996  12388.9  110.701
 25.8976  12134.2  110.016
 26.0956  12272.6  110.664
 26.2936  12267.3  110.261
 26.4916  12177.4  109.734
 26.6896  11846.2  108.54
 26.8876  11769.1  108.038
 27.0856  11679.9  107.679
 27.2836  11439.9  106.455
 27.4816  11362.8  106.025
 27.6796  11544.9  107.271
 27.8776  11253.2  105.753
 28.0756  11379  106.643
 28.2736  11249.4  105.596
 28.4716  11040.7  104.666
 28.6696  11146  105.005
 28.8676  11108.2  105.192
 29.0656  10830.8  103.85
 29.2636  10948.7  104.194
 29.4616  10884.5  104.07
 29.6596  10831.3  103.358
 29.8576  10679.1  103.354
 30.0556  10567.6  102.688
 30.2536  10685.2  103.029
 30.4516  10399.6  101.306
 30.6496  10486.2  101.441
 30.8476  10371.3  101.347
 31.0456  10430.4  101.592
 31.2436  10314.8  100.263
 31.4416  10320.1  100.461
 31.6396  10296.3  100.397
 31.8376  10382.8  100.345
 32.0356  10127.3  99.6938
 32.2336  10044.8  98.6467
 32.4316  9927.7  98.487
 32.6296  9959.23  98.4731
 32.8276  9917.5  98.0258
 33.0256  9793.45  97.4951
 33.2236  9722.35  97.2928
 33.4216  9810.97  97.3971
 33.6196  9762.07  97.4657
 33.8176  9703.29  97.3601
 34.0156  9660.5  96.7452
 34.2136  9616.38  96.5607
 34.4116  9473.68  95.9946
 34.6096  9387.04  95.4315
 34.8076  9359.43  95.7138
 35.0056  9431.78  95.7593
 35.2036  9466.94  96.1622
 35.4016  9280.33  95.1256
 35.5996  9087.75  94.1715
 35.7976  9041.35  94.223
 35.9956  9207.14  94.7098
 36.1936  8993.82  93.4673
 36.3916  8972.02  93.5393
 36.5896  8890.27  94.1168
 36.7876  8826.19  93.1341
 36.9856  8682.45  92.4071
 37.1836  8700.39  91.5878
 37.3816  8809.71  92.5427
 37.5796  8671.59  93.5969
 37.7776  8549.54  91.2805
 37.9756  8720.97  92.0715
 38.1736  8726.29  92.2957
 38.3716  8481.72  91.2742
 38.5696  8713.23  92.8865
 38.7676  8516.1  91.3311
 38.9656  8412.05  90.3942
 39.1636  8426.99  90.759
 39.3616  8600.6  91.604
 39.5596  8353.38  91.1486
 39.7576  8257.5  89.994
 39.9556  8271.24  89.6991
 40.1536  8497.91  91.1253
 40.3516  8446.35  90.8571
 40.5496  8445.81  91.1233
 40.7476  8415.5  90.9667
 40.9456  8455.18  90.9221
 41.1436  8323.68  89.9334
 41.3416  8251.99  89.8776
 41.5396  8313.68  90.0192
 41.7376  8310.56  90.2732
 41.9356  8178.82  89.4077
 42.1336  8303.78  90.2472
 42.3316  8133.11  89.5112
 42.5296  8212.93  89.4529
 42.7276  8179.58  89.5202
 42.9256  8105.32  88.9812
 43.1236  8165.87  89.4218
 43.3216  8087.49  88.7388
 43.5196  8033.18  88.5021
 43.7176  8023.3  88.853
 43.9156  8053.94  88.9217
 44.1136  7927  87.7624
 44.3116  8196.75  89.2512
 44.5096  8110.42  89.1037
 44.7076  8091.85  88.9302
 44.9056  7869.88  87.5784
 45.1036  7858.63  87.1324
 45.3016  7811.72  87.3866
 45.4996  7659.9  86.466
 45.6976  7746.92  87.128
 45.8956  7778.66  87.1253
 46.0936  7671.61  86.5304
 46.2916  7650.34  86.3894
 46.4896  7707.85  86.7543
 46.6876  7625.46  87.0131
 46.8856  7761.61  87.0243
 47.0836  7641.62  86.6043
 47.2816  7580.27  86.1081
 47.4796  7706.73  86.9555
 47.6776  7692.55  87.8462
 47.8756  7663.23  86.8177
 48.0736  7608.07  86.9848
 48.2716  7614.19  86.821
 48.4696  7666.21  86.7137
 48.6676  7601.16  86.9332
 48.8656  7649.97  86.9523
 49.0636  7511.77  86.1025
 49.2616  7519.27  86.1669
 49.4596  7669.92  86.5783
 49.6576  7562.47  86.2125
 49.8556  7581.99  86.319
 50.0536  7526.5  86.4791
 50.2516  7576.03  86.903
 50.4496  7577.13  86.5413
 50.6476  7560.01  86.1189
 50.8456  7491.04  85.8261
 51.0436  7561.11  86.6759
 51.2416  7546.72  86.2548
 51.4396  7412.9  85.9004
 51.6376  7533.67  86.4115
 51.8356  7570.86  86.2204
 52.0336  7144.96  84.3089
 52.2316  7325.56  85.7243
 52.4296  7222.68  84.8037
 52.6276  7193.58  84.7549
 52.8256  7234.56  84.5349
 53.0236  7290.96  85.5348
 53.2216  7140.16  84.6771
 53.4196  7023.84  83.9171
 53.6176  7170.1  85.2792
 53.8156  7208.56  85.1644
 54.0136  7143.44  84.9705
 54.2116  7077.79  84.2248
 54.4096  7154.71  84.7286
 54.6076  7124.92  84.9246
 54.8056  6934.1  83.5566
 55.0036  7102.69  84.987
 55.2016  6984.4  83.7864
 55.3996  7095.16  84.4214
 55.5976  7034.28  84.2562
 55.7956  7073.6  84.2973
 55.9936  6958.24  83.7493
 56.1916  7070.02  84.4373
 56.3896  7044.82  84.28
 56.5876  6951.71  84.3015
 56.7856  6989.06  83.982
 56.9836  6959.37  83.5753
 57.1816  7012.97  84.3016
 57.3796  7048.24  84.2914
 57.5776  7110.71  84.6018
 57.7756  7000.33  84.6112
 57.9736  6949.94  83.9654
 58.1716  7052.35  84.8325
 58.3696  6973.15  84.0858
 58.5676  7030.54  83.8585
 58.7656  6965.64  84.1991
 58.9636  7042.95  84.6972
 59.1616  7064.81  84.9746
 59.3596  7072.45  84.2251
 59.5576  6975.19  83.7048
 59.7556  6969.81  84.1218
 59.9536  7180.36  85.2727
 60.1516  7015.41  85.2023
 60.1996  0.0000000E+00  0.0000000E+00