Folder: echemistpy/docs/examples/opeando_xrd/IS17_D/Data/IS17_D (part 108)

File: 17_Db_f00120.xye
# /beamlines/bl04/projects/cycle2025-II/20250340211-lsimonelli/DATA/IS17_D/17_Db_f00120.xye : mythproc.py merge -s 0.006 -l 0.5 -f /beamlines/bl04/inhouse/ff/FlatField/ff_20Nov2024rod8mm60s_17keV.raw -b True -c true -o xye /beamlines/bl04/projects/cycle2025-II/20250340211-lsimonelli/DATA/IS17_D/17_Db_00120.dat
# IsMon = [6759354, 6756366, 6760498]  IsPos = [-1.4999, -2.4885, -3.4986]
# Wave = 0.4962  CalPath /beamlines/bl04/projects/cycle2025-II/20250340211-lsimonelli/DATA/Align/Si_Pos1_25keV_f00001.cal
# Date = 2025-09-25_03:08:17 Dt = 4.8000  Bin = 0.0060  <imon> = 6758739 +/- 1742 (Min/Max) 6756366 / 6760498
# icurr 250.5673  mocoIn 1.7082E-05  mocoOut 0.8021  i15 7.08088e+06  imon 6.75874e+06  i7 4.0000  iEMpd_timer 4.8000  iEMpd_1 3.4822E-08  iEMpd_2 8.0330E-08  iEMpd_3 1.6436E-08  iEMpd_4 4.9552E-08  iEMhp_timer 4.8000  iEMhp_1 4.8949E-06  iEMhp_2 -2.6049E-08  iEMhp_3 -2.6654E-08  iEMhp_4 -2.2049E-08
#      9776
 1.7416  69929.5  264.506
 1.9396  48670.3  220.942
 2.1376  36113.2  190.322
 2.3356  32472.6  180.095
 2.5336  29896.4  173.411
 2.7316  27796.3  167.348
 2.9296  26542.9  163.692
 3.1276  26105.9  161.865
 3.3256  25296.3  159.003
 3.5236  26996.5  164.199
 3.7216  24590.5  157.832
 3.9196  23956.2  154.981
 4.1176  23908.3  154.601
 4.3156  24787.4  157.592
 4.5136  27151.5  163.913
 4.7116  28389.5  168.756
 4.9096  27511.3  165.543
 5.1076  27280.8  165.442
 5.3056  27489.1  165.684
 5.5036  26910  163.956
 5.7016  27676.7  166.226
 5.8996  28226.2  167.092
 6.0976  28739.2  170.014
 6.2956  28953  170
 6.4936  29689.3  171.336
 6.6916  30148.9  173.656
 6.8896  30929.4  175.731
 7.0876  32074.6  179.715
 7.2856  31693.9  177.689
 7.4836  32386.8  178.96
 7.6816  33145.1  181.56
 7.8796  33885.7  183.593
 8.0776  35481.9  188.86
 8.2756  37127.9  191.788
 8.4736  37914.4  193.628
 8.6716  37218.1  192.48
 8.8696  37361.1  193.32
 9.0676  36808.9  191.207
 9.2656  36018  189.843
 9.4636  34974.3  185.521
 9.6616  34435.5  184.826
 9.8596  33663.5  182.206
 10.0576  31772.1  177.692
 10.2556  30708.4  175.146
 10.4536  29672.4  171.767
 10.6516  28993.8  169.997
 10.8496  27813.4  165.895
 11.0476  26966.4  163.335
 11.2456  26327.4  161.972
 11.4436  26684.2  162.214
 11.6416  26790.9  162.889
 11.8396  25199.8  158.186
 12.0376  24468  155.503
 12.2356  24185.9  155.064
 12.4336  24177.4  154.545
 12.6316  24087.1  154.521
 12.8296  24038.5  153.973
 13.0276  24612.3  156.022
 13.2256  24775.4  156.905
 13.4236  24715.6  156.483
 13.6216  24821.1  156.812
 13.8196  27012.4  163.02
 14.0176  23824.7  153.711
 14.2156  23626.7  152.098
 14.4136  22406.8  149.499
 14.6116  22153.5  147.835
 14.8096  21335.7  145.076
 15.0076  20579.8  146.393
 15.2056  19531.1  138.422
 15.4036  18620.3  135.989
 15.6016  18159.9  133.39
 15.7996  17684.8  131.894
 15.9976  17564  134.344
 16.1956  17152.1  130.628
 16.3936  16890.3  128.828
 16.5916  16784  129.061
 16.7896  16781.2  129.116
 16.9876  16470.3  129.383
 17.1856  16191.4  126.671
 17.3836  15982.9  125.752
 17.5816  15449.3  124.123
 17.7796  15178.7  122.961
 17.9776  14849  122.379
 18.1756  14901  121.343
 18.3736  14569  120.468
 18.5716  14518.7  120.002
 18.7696  14608.6  119.933
 18.9676  14474.9  119.181
 19.1656  13986.5  117.746
 19.3636  13981.3  117.925
 19.5616  13945.7  117.942
 19.7596  14074.6  117.88
 19.9576  14460.1  119.526
 20.1556  14497.8  120.214
 20.3536  13752.8  116.465
 20.5516  13502.4  115.848
 20.7496  13157.3  114.304
 20.9476  13252.4  114.463
 21.1456  13088.4  114.085
 21.3436  12887.4  113.146
 21.5416  12977.6  113.559
 21.7396  12722.6  112.283
 21.9376  12759.2  112.22
 22.1356  12674.1  111.847
 22.3336  12557.7  111.721
 22.5316  12539.7  111.753
 22.7296  12342.9  110.246
 22.9276  12300.4  110.716
 23.1256  12680.8  111.886
 23.3236  12914.4  113.48
 23.5216  12656.7  111.975
 23.7196  12618.4  111.763
 23.9176  12525.4  111.1
 24.1156  12454.1  111.244
 24.3136  11996.7  110.007
 24.5116  12253.1  110.665
 24.7096  11801.7  108.419
 24.9076  11709.1  108.046
 25.1056  11263.9  106.167
 25.3036  11073.1  105.044
 25.5016  11202.9  105.692
 25.6996  11075.6  104.67
 25.8976  11030.9  104.888
 26.0956  10937  104.45
 26.2936  11007.8  104.458
 26.4916  11222.7  105.329
 26.6896  10783.9  103.554
 26.8876  10797.9  103.475
 27.0856  10522.3  102.17
 27.2836  10372.2  101.511
 27.4816  10255.1  100.721
 27.6796  10269.6  101.159
 27.8776  10461.3  101.953
 28.0756  10048.7  100.22
 28.2736  10169.6  100.394
 28.4716  9966.17  99.4416
 28.6696  9972.59  99.3073
 28.8676  9848.04  99.0515
 29.0656  9761.76  98.5837
 29.2636  9891.57  98.9494
 29.4616  9405.43  96.756
 29.6596  9513.79  96.8792
 29.8576  9287.13  96.3963
 30.0556  9294.98  96.3054
 30.2536  9474.93  97.035
 30.4516  9547.84  97.0367
 30.6496  9712.39  97.6021
 30.8476  9506.27  97.0033
 31.0456  9557.42  97.2332
 31.2436  9480.21  96.096
 31.4416  9282.65  95.2831
 31.6396  9419.43  96.0285
 31.8376  9533.29  96.1194
 32.0356  9281.27  95.429
 32.2336  9337.63  95.1067
 32.4316  8990.63  93.7235
 32.6296  8957.82  93.32
 32.8276  9098.06  93.904
 33.0256  8991.2  93.4083
 33.2236  9012.46  93.6665
 33.4216  8938.64  92.9684
 33.6196  8915.26  93.1444
 33.8176  8889.99  93.1791
 34.0156  8812.1  92.3986
 34.2136  8854.81  92.6373
 34.4116  8645.39  91.7095
 34.6096  8671.99  91.7224
 34.8076  8686.2  92.2201
 35.0056  8551.97  91.1745
 35.2036  8840.35  92.9275
 35.4016  8498.95  91.0237
 35.5996  8573.52  91.456
 35.7976  8407.88  90.853
 35.9956  8604.57  91.5482
 36.1936  8526.22  90.9869
 36.3916  8373.84  90.3585
 36.5896  8431.26  92.1387
 36.7876  8086.06  89.1695
 36.9856  7909.73  88.2155
 37.1836  8023.54  87.9647
 37.3816  8125.77  88.8809
 37.5796  8152.37  90.7529
 37.7776  8187.96  89.3058
 37.9756  8262.07  89.5979
 38.1736  8192.44  89.4043
 38.3716  8123.06  89.2921
 38.5696  8221.87  90.2249
 38.7676  8052.45  88.8131
 38.9656  7961.3  87.9316
 39.1636  8011.39  88.4551
 39.3616  7895.42  87.7784
 39.5596  7921.94  88.757
 39.7576  7860.64  87.8038
 39.9556  7896.19  87.6412
 40.1536  8032.51  88.5854
 40.3516  7982.38  88.4062
 40.5496  8028.52  88.6249
 40.7476  8113.43  89.2921
 40.9456  8104.01  89.0109
 41.1436  8077.4  88.583
 41.3416  7851.09  87.6673
 41.5396  7814.08  87.2746
 41.7376  7884.98  87.9299
 41.9356  7889.26  87.8065
 42.1336  8128.84  89.2743
 42.3316  7859.65  87.9912
 42.5296  7975.8  88.1455
 42.7276  8001.44  88.5337
 42.9256  8015.91  88.4892
 43.1236  7881.67  87.8476
 43.3216  7842.71  87.4822
 43.5196  7805.65  87.2327
 43.7176  7863.62  87.9562
 43.9156  7497.23  85.8023
 44.1136  7641.27  86.1766
 44.3116  7597.8  85.936
 44.5096  7618.83  86.3743
 44.7076  7582.27  86.0963
 44.9056  7755.4  86.9295
 45.1036  7720.01  86.3481
 45.3016  7667.21  86.5543
 45.4996  7588.52  86.0471
 45.6976  7588.61  86.2316
 45.8956  7649.06  86.4016
 46.0936  7737.11  86.897
 46.2916  7506.17  85.5586
 46.4896  7569.29  85.9588
 46.6876  7520.83  86.4088
 46.8856  7525.78  85.7926
 47.0836  7584.51  86.2662
 47.2816  7461.9  85.4528
 47.4796  7488.16  85.7084
 47.6776  7445.64  86.4194
 47.8756  7480.52  85.778
 48.0736  7501.87  86.35
 48.2716  7392.4  85.5564
 48.4696  7473.89  85.6143
 48.6676  7456.88  86.1084
 48.8656  7452.2  85.801
 49.0636  7434.59  85.6536
 49.2616  7278.28  84.7783
 49.4596  7431.25  85.1925
 49.6576  7379.64  85.1441
 49.8556  7335.35  84.9182
 50.0536  7353.29  85.4715
 50.2516  7284.3  85.1898
 50.4496  7222.36  84.5027
 50.6476  7415  85.2905
 50.8456  7248.05  84.4067
 51.0436  7059.24  83.7623
 51.2416  7169.34  84.0759
 51.4396  7040.81  83.7306
 51.6376  7111.31  83.9698
 51.8356  7138.93  83.7403
 52.0336  7009.74  83.4955
 52.2316  7057.08  84.132
 52.4296  6969.98  83.3106
 52.6276  7012.47  83.6711
 52.8256  7079.92  83.6297
 53.0236  7096.7  84.3944
 53.2216  7012.19  83.9287
 53.4196  7069.4  84.1751
 53.6176  7100.13  84.8705
 53.8156  6944.64  83.5967
 54.0136  6728.94  82.4555
 54.2116  6851.85  82.8417
 54.4096  6721.06  82.123
 54.6076  6601.67  81.7298
 54.8056  6603.77  81.5259
 55.0036  6540.8  81.533
 55.2016  6676.95  81.9008
 55.3996  6523.01  80.9366
 55.5976  6562.72  81.382
 55.7956  6558.88  81.1382
 55.9936  6628.17  81.7104
 56.1916  6440.69  80.5755
 56.3896  6268.8  79.4833
 56.5876  6437.44  81.1141
 56.7856  6403.51  80.3823
 56.9836  6407.24  80.1673
 57.1816  6464.54  80.8927
 57.3796  6215.14  79.1143
 57.5776  6280.45  79.4479
 57.7756  6256.57  79.9765
 57.9736  6297.18  79.8923
 58.1716  6208.03  79.5904
 58.3696  6038.48  78.2613
 58.5676  6040.31  77.7447
 58.7656  6144.4  79.0934
 58.9636  6074.95  78.6725
 59.1616  6002.92  78.3354
 59.3596  6035.95  77.8032
 59.5576  6003.84  77.6522
 59.7556  5885.73  77.2974
 59.9536  6126.02  78.7577
 60.1516  5972.96  78.6116
 60.1996  0.0000000E+00  0.0000000E+00

File: 17_Db_f00121.xye
# /beamlines/bl04/projects/cycle2025-II/20250340211-lsimonelli/DATA/IS17_D/17_Db_f00121.xye : mythproc.py merge -s 0.006 -l 0.5 -f /beamlines/bl04/inhouse/ff/FlatField/ff_20Nov2024rod8mm60s_17keV.raw -b True -c true -o xye /beamlines/bl04/projects/cycle2025-II/20250340211-lsimonelli/DATA/IS17_D/17_Db_00121.dat
# IsMon = [6762458, 6763307, 6768294]  IsPos = [-1.4999, -2.4884, -3.4988]
# Wave = 0.4962  CalPath /beamlines/bl04/projects/cycle2025-II/20250340211-lsimonelli/DATA/Align/Si_Pos1_25keV_f00001.cal
# Date = 2025-09-25_03:27:15 Dt = 4.8000  Bin = 0.0060  <imon> = 6764686 +/- 2574 (Min/Max) 6762458 / 6768294
# icurr 250.8557  mocoIn 1.7118E-05  mocoOut 0.8026  i15 7.09045e+06  imon 6.76469e+06  i7 6.3333  iEMpd_timer 4.8000  iEMpd_1 3.4969E-08  iEMpd_2 7.9639E-08  iEMpd_3 1.7965E-08  iEMpd_4 4.9217E-08  iEMhp_timer 4.8000  iEMhp_1 4.9011E-06  iEMhp_2 -2.4931E-08  iEMhp_3 -2.4469E-08  iEMhp_4 -2.1586E-08
#      9776
 1.7416  71148.6  266.857
 1.9396  48898.4  221.514
 2.1376  35861.3  189.697
 2.3356  32198.8  179.372
 2.5336  30093.9  174.02
 2.7316  27657.5  166.94
 2.9296  26368.2  163.158
 3.1276  25927.1  161.324
 3.3256  25201.6  158.705
 3.5236  26743.4  163.281
 3.7216  24401.6  157.217
 3.9196  24058.5  155.308
 4.1176  23972.8  154.825
 4.3156  24823.6  157.698
 4.5136  27025.5  163.53
 4.7116  28314.7  168.533
 4.9096  27411  165.242
 5.1076  27210.4  165.233
 5.3056  27220.3  164.967
 5.5036  27121.7  164.595
 5.7016  27486.8  165.654
 5.8996  28056.7  166.588
 6.0976  29021.2  170.852
 6.2956  29079.5  170.367
 6.4936  29862  171.83
 6.6916  30264.5  173.991
 6.8896  31011.8  175.967
 7.0876  31795  178.932
 7.2856  31842.2  178.102
 7.4836  32178.4  178.385
 7.6816  33126.7  181.507
 7.8796  33809.8  183.368
 8.0776  35440.2  188.729
 8.2756  37167.3  191.871
 8.4736  37683.4  193.017
 8.6716  36821.3  191.432
 8.8696  37676.7  194.141
 9.0676  37125.7  192.023
 9.2656  36068  189.985
 9.4636  35168.8  186.033
 9.6616  34509.5  185.011
 9.8596  33692  182.294
 10.0576  31823.5  177.85
 10.2556  30468.6  174.474
 10.4536  29837.7  172.254
 10.6516  29064  170.216
 10.8496  27840.6  165.975
 11.0476  27263.6  164.267
 11.2456  26522.3  162.568
 11.4436  26574.1  161.883
 11.6416  26683.4  162.565
 11.8396  25406.4  158.842
 12.0376  24714.5  156.289
 12.2356  24309.3  155.432
 12.4336  24230.1  154.714
 12.6316  24208.1  154.919
 12.8296  24321.9  154.882
 13.0276  24554.6  155.828
 13.2256  24968.1  157.507
 13.4236  24734.6  156.544
 13.6216  24964.4  157.26
 13.8196  27015.9  163.072
 14.0176  24060.8  154.465
 14.2156  23396.9  151.358
 14.4136  22520.7  149.886
 14.6116  22162  147.879
 14.8096  21360.2  145.151
 15.0076  20501.7  146.136
 15.2056  19548.9  138.478
 15.4036  18611.5  135.941
 15.6016  18228.2  133.627
 15.7996  17739.1  132.086
 15.9976  17488.4  134.074
 16.1956  17247.4  131.006
 16.3936  16898.2  128.846
 16.5916  16634.1  128.481
 16.7896  16496  128.012
 16.9876  16557.9  129.738
 17.1856  16265.9  126.961
 17.3836  15715.1  124.706
 17.5816  15235.8  123.268
 17.7796  15316.1  123.517
 17.9776  14897.7  122.582
 18.1756  14978.1  121.654
 18.3736  14585.8  120.535
 18.5716  14744.5  120.936
 18.7696  14530.1  119.616
 18.9676  14410.3  118.927
 19.1656  13973.7  117.686
 19.3636  14086.9  118.361
 19.5616  14087.9  118.539
 19.7596  14261.5  118.661
 19.9576  14588.8  120.048
 20.1556  14546.9  120.421
 20.3536  13941.7  117.277
 20.5516  13489.9  115.791
 20.7496  13192.7  114.449
 20.9476  13338.3  114.842
 21.1456  13082.6  114.054
 21.3436  12933.2  113.355
 21.5416  12806.8  112.815
 21.7396  12762.7  112.463
 21.9376  12716.6  112.025
 22.1356  12676.1  111.973
 22.3336  12514  111.54
 22.5316  12567.9  111.864
 22.7296  12465.1  110.779
 22.9276  12305.2  110.722
 23.1256  12592.8  111.483
 23.3236  12797.2  112.968
 23.5216  12642.6  111.917
 23.7196  12473.8  111.125
 23.9176  12625.6  111.554
 24.1156  12385.8  110.931
 24.3136  12041.9  110.212
 24.5116  12174.2  110.332
 24.7096  11762.3  108.264
 24.9076  11775.9  108.365
 25.1056  11468.4  107.399
 25.3036  11034.8  104.859
 25.5016  11171.7  105.543
 25.6996  11175.2  105.14
 25.8976  11030.4  104.886
 26.0956  11016.7  104.832
 26.2936  11011.4  104.467
 26.4916  11297.4  105.672
 26.6896  10964.3  104.411
 26.8876  10710  103.05
 27.0856  10611.9  102.631
 27.2836  10404.4  101.519
 27.4816  10352.4  101.206
 27.6796  10313.2  101.378
 27.8776  10427.3  101.797
 28.0756  10275.8  101.342
 28.2736  10064.5  99.88
 28.4716  9986.89  99.5392
 28.6696  10042.1  99.6681
 28.8676  9803.27  98.8187
 29.0656  9818.12  98.8702
 29.2636  9830.25  98.7239
 29.4616  9499.4  97.2282
 29.6596  9600.96  97.3123
 29.8576  9403.04  96.9855
 30.0556  9430.35  96.9967
 30.2536  9576.63  97.5466
 30.4516  9474.99  96.661
 30.6496  9644.01  97.2583
 30.8476  9612.92  97.5549
 31.0456  9523.07  97.0559
 31.2436  9564.69  96.5291
 31.4416  9291.55  95.3322
 31.6396  9348.24  95.6713
 31.8376  9395.15  95.4308
 32.0356  9424.05  96.1612
 32.2336  9276.02  94.8055
 32.4316  9105.01  94.3185
 32.6296  8981.39  93.5118
 32.8276  9065.86  93.7339
 33.0256  9000.66  93.4566
 33.2236  9061.9  93.9256
 33.4216  8933.34  92.9377
 33.6196  8909.39  93.1179
 33.8176  8889.13  93.1733
 34.0156  8779.91  92.2282
 34.2136  8942.15  93.0985
 34.4116  8592.68  91.4279
 34.6096  8714.67  91.9537
 34.8076  8544.5  91.4665
 35.0056  8623.6  91.5594
 35.2036  8807.97  92.7608
 35.4016  8570.51  91.4107
 35.5996  8439.68  90.7481
 35.7976  8509.01  91.3852
 35.9956  8635.09  91.7158
 36.1936  8566.05  91.1981
 36.3916  8370.7  90.3469
 36.5896  8321.01  91.0678
 36.7876  8170.88  89.6233
 36.9856  8002.7  88.7158
 37.1836  8125.29  88.5082
 37.3816  8042.24  88.4147
 37.5796  8199.26  91.0124
 37.7776  8264.21  89.7316
 37.9756  8235.2  89.4564
 38.1736  8271.47  89.8393
 38.3716  8144.56  89.4169
 38.5696  8056.97  89.3268
 38.7676  7909.06  88.0213
 38.9656  7982.9  88.0658
 39.1636  8005.35  88.4593
 39.3616  7973.4  88.2142
 39.5596  7795.99  88.0506
 39.7576  7897.64  88.0112
 39.9556  7946.72  87.9197
 40.1536  7980.17  88.2989
 40.3516  8001.99  88.4315
 40.5496  8069.88  89.0725
 40.7476  8106.08  89.2696
 40.9456  8086.73  88.9138
 41.1436  8123.44  88.8413
 41.3416  7911.41  88.0013
 41.5396  7995.54  88.2802
 41.7376  7974.81  88.4262
 41.9356  8001.17  88.4282
 42.1336  8122.44  89.2396
 42.3316  7912.54  88.2821
 42.5296  7979.73  88.1664
 42.7276  7921.1  88.0906
 42.9256  7832.16  87.4686
 43.1236  7924.45  88.0828
 43.3216  7957.6  88.0135
 43.5196  7779.95  87.0966
 43.7176  7723.96  87.1673
 43.9156  7641.81  86.6206
 44.1136  7515.68  85.4562
 44.3116  7696.89  86.4828
 44.5096  7536.57  85.8977
 44.7076  7551.28  85.9114
 44.9056  7703.88  86.6413
 45.1036  7714.01  86.3156
 45.3016  7621.5  86.3032
 45.4996  7572.63  85.9671
 45.6976  7596.72  86.273
 45.8956  7679.31  86.5722
 46.0936  7755.88  87.0075
 46.2916  7683.91  86.5817
 46.4896  7669.76  86.5311
 46.6876  7599.04  86.8514
 46.8856  7568.51  85.913
 47.0836  7560.59  86.1291
 47.2816  7502.52  85.6836
 47.4796  7536.14  85.9768
 47.6776  7501.38  86.7529
 47.8756  7395.69  85.2934
 48.0736  7438.09  85.999
 48.2716  7277.07  84.8837
 48.4696  7474.14  85.6099
 48.6676  7470.35  86.1916
 48.8656  7475.66  85.9392
 49.0636  7469.63  85.8386
 49.2616  7248.64  84.6067
 49.4596  7430.26  85.2091
 49.6576  7379.29  85.1473
 49.8556  7341.44  84.9529
 50.0536  7275.21  85.0223
 50.2516  7336.54  85.5175
 50.4496  7366.67  85.3391
 50.6476  7388.45  85.1318
 50.8456  7347.06  84.9816
 51.0436  7230.42  84.7621
 51.2416  7191.32  84.1912
 51.4396  6959.32  83.2361
 51.6376  7151.57  84.2013
 51.8356  7123.61  83.6483
 52.0336  7041.29  83.684
 52.2316  7020.21  83.9129
 52.4296  6963.41  83.272
 52.6276  6976.8  83.4515
 52.8256  7041.16  83.4021
 53.0236  7062.13  84.1926
 53.2216  7059.84  84.2212
 53.4196  7074.9  84.1941
 53.6176  6965.7  84.0738
 53.8156  6977.46  83.8034
 54.0136  6676.06  82.1298
 54.2116  6889.32  83.059
 54.4096  6667.6  81.7776
 54.6076  6688.99  82.2626
 54.8056  6579.69  81.3669
 55.0036  6620.94  82.0358
 55.2016  6668.11  81.8257
 55.3996  6394.96  80.1338
 55.5976  6565.26  81.3805
 55.7956  6484.77  80.6918
 55.9936  6561.18  81.3009
 56.1916  6447.24  80.633
 56.3896  6358.88  80.0457
 56.5876  6453.98  81.2099
 56.7856  6345.32  80.0203
 56.9836  6462.41  80.5186
 57.1816  6541.36  81.3884
 57.3796  6354.18  80.033
 57.5776  6358.19  79.9145
 57.7756  6196.89  79.5969
 57.9736  6313.77  80.0048
 58.1716  6242.67  79.8148
 58.3696  6009.08  78.0657
 58.5676  6132.51  78.3306
 58.7656  5964.12  77.9164
 58.9636  6090.44  78.7634
 59.1616  5980.01  78.1795
 59.3596  5991.9  77.508
 59.5576  6089.76  78.1951
 59.7556  5974.68  77.8687
 59.9536  6103.62  78.6029
 60.1516  5977.13  78.6283
 60.1996  0.0000000E+00  0.0000000E+00