Folder: echemistpy/docs/examples/opeando_xrd/IS17_D/Data/IS17_D (part 9)

File: 17_Da_f00025.xye
# /beamlines/bl04/projects/cycle2025-II/20250340211-lsimonelli/DATA/IS17_D/17_Da_f00025.xye : mythproc.py merge -s 0.006 -l 0.5 -f /beamlines/bl04/inhouse/ff/FlatField/ff_20Nov2024rod8mm60s_17keV.raw -b True -c true -o xye /beamlines/bl04/projects/cycle2025-II/20250340211-lsimonelli/DATA/IS17_D/17_Da_00025.dat
# IsMon = [6754108, 6757118, 6756496]  IsPos = [-1.5000, -2.4885, -3.4988]
# Wave = 0.4962  CalPath /beamlines/bl04/projects/cycle2025-II/20250340211-lsimonelli/DATA/Align/Si_Pos1_25keV_f00001.cal
# Date = 2025-09-24_00:31:23 Dt = 4.8000  Bin = 0.0060  <imon> = 6755907 +/- 1297 (Min/Max) 6754108 / 6757118
# icurr 249.8289  mocoIn 1.7052E-05  mocoOut 0.8002  i15 7.06943e+06  imon 6.75591e+06  i7 5.3333  iEMpd_timer 4.8000  iEMpd_1 3.5546E-08  iEMpd_2 7.8169E-08  iEMpd_3 1.7289E-08  iEMpd_4 4.8480E-08  iEMhp_timer 4.8000  iEMhp_1 4.8816E-06  iEMhp_2 -2.5444E-08  iEMhp_3 -2.5524E-08  iEMhp_4 -2.1649E-08
#      9776
 1.7416  69386.7  263.524
 1.9396  44855.1  212.153
 2.1376  31414.5  177.541
 2.3356  28110.3  167.592
 2.5336  26670.5  163.818
 2.7316  24748.6  157.896
 2.9296  23415.6  153.748
 3.1276  22958.5  151.797
 3.3256  22701  150.613
 3.5236  24781.8  157.323
 3.7216  22463.6  150.858
 3.9196  22069.8  148.773
 4.1176  21951.8  148.153
 4.3156  23074.2  152.051
 4.5136  25765.7  159.667
 4.7116  26767.6  163.871
 4.9096  26228.9  161.651
 5.1076  25903.4  161.222
 5.3056  26085.4  161.519
 5.5036  25799.2  160.61
 5.7016  26393.4  162.332
 5.8996  26825.1  162.87
 6.0976  27464  166.232
 6.2956  28039.1  167.298
 6.4936  28720.7  168.524
 6.6916  29107.5  170.641
 6.8896  29752.4  172.386
 7.0876  30896  176.307
 7.2856  30503  174.331
 7.4836  30856.5  174.68
 7.6816  31611.4  177.336
 7.8796  33031.5  181.255
 8.0776  35161.9  187.986
 8.2756  36117.4  189.152
 8.4736  36811.6  190.767
 8.6716  35779.8  188.7
 8.8696  36102  190.037
 9.0676  35223.1  187.079
 9.2656  33934.2  184.298
 9.4636  33490.5  181.527
 9.6616  32757.5  180.288
 9.8596  31638.3  176.657
 10.0576  30021.4  172.724
 10.2556  29092.3  170.47
 10.4536  29009.4  169.833
 10.6516  29059.2  170.148
 10.8496  26819.4  162.914
 11.0476  26148.8  160.834
 11.2456  25997.8  160.945
 11.4436  25315.3  158.004
 11.6416  25152.7  157.851
 11.8396  23752  153.595
 12.0376  23752.5  153.214
 12.2356  23447.6  152.667
 12.4336  23265.9  151.611
 12.6316  23016.6  151.055
 12.8296  23156.9  151.16
 13.0276  23793.5  153.398
 13.2256  23720  153.527
 13.4236  23521.8  152.646
 13.6216  23348  152.11
 13.8196  23449.5  152.209
 14.0176  23183.3  151.622
 14.2156  22661.8  148.973
 14.4136  21792.9  147.443
 14.6116  21225.3  144.73
 14.8096  20700.4  142.913
 15.0076  19627.7  142.91
 15.2056  19093  136.857
 15.4036  18199.9  134.428
 15.6016  17940.7  132.566
 15.7996  17565.4  131.45
 15.9976  16885.1  131.778
 16.1956  16292.7  127.368
 16.3936  16050.2  125.608
 16.5916  15876.2  125.542
 16.7896  15807.8  125.333
 16.9876  15510.6  125.576
 17.1856  15427.7  123.635
 17.3836  14846.7  121.174
 17.5816  14597.8  120.647
 17.7796  14483.3  120.102
 17.9776  14422  120.631
 18.1756  14617.3  120.159
 18.3736  14709.9  121.047
 18.5716  14020.7  117.936
 18.7696  14025.5  117.533
 18.9676  13614.1  115.611
 19.1656  13579.4  116.012
 19.3636  13450.2  115.652
 19.5616  13295.6  115.153
 19.7596  13586.2  115.817
 19.9576  13861  117.041
 20.1556  13580.1  116.356
 20.3536  13206.2  114.138
 20.5516  12979.2  113.592
 20.7496  12661.7  112.048
 20.9476  12674.8  111.949
 21.1456  12822.8  112.922
 21.3436  12532.2  111.59
 21.5416  12544.7  111.645
 21.7396  12260.4  110.226
 21.9376  12280.6  110.074
 22.1356  12299.2  110.441
 22.3336  12310.5  110.606
 22.5316  12324.9  110.767
 22.7296  12164.5  109.43
 22.9276  12200.4  110.253
 23.1256  12415.1  110.694
 23.3236  12233.4  110.442
 23.5216  12084.3  109.434
 23.7196  12021.9  109.313
 23.9176  11889.1  108.261
 24.1156  11862.2  108.597
 24.3136  11565.5  108.008
 24.5116  11491.1  107.194
 24.7096  11099.7  105.174
 24.9076  11062.5  105.02
 25.1056  10998.2  104.899
 25.3036  10741.4  103.455
 25.5016  10650.5  103.053
 25.6996  10689.6  102.832
 25.8976  10688.5  103.254
 26.0956  10670.9  103.19
 26.2936  10637.4  102.679
 26.4916  10619.9  102.478
 26.6896  10327.1  101.345
 26.8876  10181.6  100.486
 27.0856  10340.4  101.274
 27.2836  10099.9  100.025
 27.4816  10046.1  99.7001
 27.6796  9992.46  99.7979
 27.8776  9894.72  99.1694
 28.0756  9913.5  99.5425
 28.2736  9870.86  98.9179
 28.4716  9742.13  98.3207
 28.6696  9614.82  97.5244
 28.8676  9554.67  97.5562
 29.0656  9463.51  97.0735
 29.2636  9419.59  96.5655
 29.4616  9246.51  95.9265
 29.6596  9381.68  96.1976
 29.8576  9315.26  96.5317
 30.0556  9342.47  96.5446
 30.2536  9345.68  96.3655
 30.4516  9282.75  95.7075
 30.6496  9115.23  94.5724
 30.8476  9084.26  94.8425
 31.0456  9057.52  94.6712
 31.2436  9169.62  94.5308
 31.4416  8836.17  92.9619
 31.6396  8950.36  93.6081
 31.8376  9030.98  93.5761
 32.0356  8920.36  93.5609
 32.2336  8840.23  92.5434
 32.4316  8808.14  92.7696
 32.6296  8672.64  91.828
 32.8276  8737.21  92.0076
 33.0256  8553.6  91.121
 33.2236  8626.29  91.649
 33.4216  8655.58  91.497
 33.6196  8625.02  91.6219
 33.8176  8534.74  91.3034
 34.0156  8500.67  90.7475
 34.2136  8363.04  90.0466
 34.4116  8309.35  89.9001
 34.6096  8387.79  90.2062
 34.8076  8323.55  90.2554
 35.0056  8375.09  90.2381
 35.2036  8197.66  89.4784
 35.4016  8244.27  89.659
 35.5996  8178.37  89.3367
 35.7976  8006.31  88.6506
 35.9956  8141.74  89.0516
 36.1936  8160.95  89.0321
 36.3916  8014  88.398
 36.5896  7982.78  89.6405
 36.7876  8049.02  88.9607
 36.9856  7901.43  88.1686
 37.1836  8117.53  88.4712
 37.3816  7986.2  88.1131
 37.5796  7868.95  89.1518
 37.7776  7808.19  87.2258
 37.9756  7702.88  86.5166
 38.1736  7951.32  88.0994
 38.3716  7744.54  87.216
 38.5696  7789.05  87.8286
 38.7676  7545.85  85.971
 38.9656  7608.2  85.9687
 39.1636  7584.79  86.0633
 39.3616  7671.32  86.5145
 39.5596  7517.44  86.4652
 39.7576  7596.92  86.3105
 39.9556  7690.89  86.4925
 40.1536  7742.03  86.9794
 40.3516  7754.45  87.0589
 40.5496  7721.12  86.9168
 40.7476  7807.13  87.6108
 40.9456  7737.64  86.9767
 41.1436  7760.12  86.8309
 41.3416  7654.64  86.564
 41.5396  7605.15  86.0981
 41.7376  7679.49  86.7799
 41.9356  7676.43  86.624
 42.1336  7539.54  85.9938
 42.3316  7564.21  86.3246
 42.5296  7685.2  86.5348
 42.7276  7657.53  86.6139
 42.9256  7644.55  86.4134
 43.1236  7425.5  85.2734
 43.3216  7500.05  85.5544
 43.5196  7405.78  84.9772
 43.7176  7402.26  85.3455
 43.9156  7330.78  84.8406
 44.1136  7317.84  84.3253
 44.3116  7354.61  84.5424
 44.5096  7178.81  83.8337
 44.7076  7239.98  84.1223
 44.9056  7232.58  83.9542
 45.1036  7137.01  83.0383
 45.3016  7198.55  83.8852
 45.4996  7040.16  82.8988
 45.6976  6992.17  82.7855
 45.8956  7119.24  83.354
 46.0936  7188.29  83.5212
 46.2916  7179.45  83.6903
 46.4896  7155.61  83.5848
 46.6876  7120.83  84.0817
 46.8856  6951  82.3462
 47.0836  6868.22  82.0996
 47.2816  6898.41  82.1493
 47.4796  6931.74  82.4558
 47.6776  6836.45  82.8184
 47.8756  6808.77  81.8384
 48.0736  6887.65  82.763
 48.2716  6748.49  81.7404
 48.4696  6842.37  81.9092
 48.6676  6824.54  82.3803
 48.8656  6775.1  81.8059
 49.0636  6704.38  81.33
 49.2616  6597.65  80.7203
 49.4596  6632.54  80.5014
 49.6576  6593.95  80.4881
 49.8556  6616.46  80.6504
 50.0536  6637.35  81.2147
 50.2516  6565.58  80.8755
 50.4496  6510.27  80.2248
 50.6476  6505.03  79.8859
 50.8456  6539.56  80.171
 51.0436  6410.33  79.8121
 51.2416  6322.33  78.9504
 51.4396  6261.45  78.9513
 51.6376  6371.1  79.4667
 51.8356  6312.09  78.7379
 52.0336  6222.18  78.6773
 52.2316  6255.9  79.2261
 52.4296  6210.4  78.6459
 52.6276  6185.2  78.5892
 52.8256  6295.41  78.8565
 53.0236  6163.65  78.652
 53.2216  6060.48  77.9966
 53.4196  6107.62  78.2544
 53.6176  6089.16  78.5998
 53.8156  6071.86  78.1711
 54.0136  6192  79.1132
 54.2116  6100.82  78.1963
 54.4096  6132.74  78.4449
 54.6076  5992.31  77.8747
 54.8056  6020.9  77.8632
 55.0036  5879.29  77.1999
 55.2016  6017.68  77.7094
 55.3996  6002.55  77.6499
 55.5976  5955.55  77.5249
 55.7956  5945.68  77.2865
 55.9936  5923.03  77.2751
 56.1916  5995.02  77.7573
 56.3896  5960.13  77.5181
 56.5876  5911.44  77.7407
 56.7856  5886.27  77.0583
 56.9836  5806.38  76.3378
 57.1816  5937.51  77.5687
 57.3796  5955.81  77.491
 57.5776  5873.44  76.8865
 57.7756  5837.11  77.2642
 57.9736  5804.38  76.7332
 58.1716  5951.47  77.9357
 58.3696  5919.27  77.4756
 58.5676  5957.87  77.2107
 58.7656  5910.05  77.555
 58.9636  5976.35  78.0291
 59.1616  5942.57  77.908
 59.3596  6023.46  77.7289
 59.5576  6002.89  77.6527
 59.7556  5904.47  77.4271
 59.9536  6002.68  77.9676
 60.1516  5990.42  78.7332
 60.1996  0.0000000E+00  0.0000000E+00

File: 17_Da_f00027.xye
# /beamlines/bl04/projects/cycle2025-II/20250340211-lsimonelli/DATA/IS17_D/17_Da_f00027.xye : mythproc.py merge -s 0.006 -l 0.5 -f /beamlines/bl04/inhouse/ff/FlatField/ff_20Nov2024rod8mm60s_17keV.raw -b True -c true -o xye /beamlines/bl04/projects/cycle2025-II/20250340211-lsimonelli/DATA/IS17_D/17_Da_00027.dat
# IsMon = [6765212, 6770900, 6768962]  IsPos = [-1.4999, -2.4884, -3.4988]
# Wave = 0.4962  CalPath /beamlines/bl04/projects/cycle2025-II/20250340211-lsimonelli/DATA/Align/Si_Pos1_25keV_f00001.cal
# Date = 2025-09-24_01:04:26 Dt = 4.8000  Bin = 0.0060  <imon> = 6768358 +/- 2361 (Min/Max) 6765212 / 6770900
# icurr 251.5839  mocoIn 1.7166E-05  mocoOut 0.8050  i15 7.08591e+06  imon 6.76836e+06  i7 10.0000  iEMpd_timer 4.8000  iEMpd_1 3.5708E-08  iEMpd_2 7.7504E-08  iEMpd_3 1.7361E-08  iEMpd_4 4.9604E-08  iEMhp_timer 4.8000  iEMhp_1 4.9158E-06  iEMhp_2 -2.4961E-08  iEMhp_3 -2.4360E-08  iEMhp_4 -2.1096E-08
#      9776
 1.7416  69892.4  264.509
 1.9396  45075.7  212.696
 2.1376  31738.5  178.471
 2.3356  28054.7  167.443
 2.5336  26437.1  163.116
 2.7316  24812  158.097
 2.9296  23740.6  154.811
 3.1276  23292.7  152.904
 3.3256  22887.6  151.229
 3.5236  24833.3  157.328
 3.7216  22721.5  151.722
 3.9196  22166  149.094
 4.1176  22187.1  148.95
 4.3156  23539.8  153.579
 4.5136  25872.5  159.993
 4.7116  27057.7  164.756
 4.9096  26380.8  162.123
 5.1076  26234.5  162.254
 5.3056  26720.4  163.468
 5.5036  26303.6  162.081
 5.7016  26624.4  163.041
 5.8996  27020.6  163.466
 6.0976  27834.8  167.353
 6.2956  28539.9  168.781
 6.4936  29149.5  169.774
 6.6916  29249.7  171.059
 6.8896  30104.6  173.395
 7.0876  30953  176.548
 7.2856  30898.6  175.46
 7.4836  31029.3  175.174
 7.6816  31865  178.047
 7.8796  33206.1  181.729
 8.0776  34887.4  187.241
 8.2756  36424.7  189.95
 8.4736  36948.9  191.115
 8.6716  36183  189.744
 8.8696  35865.2  189.427
 9.0676  35054.1  186.641
 9.2656  34242.5  185.141
 9.4636  33732.5  182.182
 9.6616  32872.9  180.613
 9.8596  31859.9  177.276
 10.0576  29921.3  172.435
 10.2556  29137  170.602
 10.4536  28556  168.5
 10.6516  27856.4  166.615
 10.8496  27084.2  163.709
 11.0476  26117.6  160.781
 11.2456  25472.8  159.3
 11.4436  25748.8  159.353
 11.6416  25317.7  158.367
 11.8396  24071.5  154.627
 12.0376  23797.7  153.382
 12.2356  23344.6  152.307
 12.4336  23312.8  151.761
 12.6316  22981.5  150.947
 12.8296  23387.8  151.913
 13.0276  23838.6  153.544
 13.2256  23873.8  154.02
 13.4236  23699.2  153.224
 13.6216  23601.5  152.938
 13.8196  23743  153.156
 14.0176  23272.3  151.91
 14.2156  22756.3  149.279
 14.4136  21874.8  147.716
 14.6116  21287.8  144.943
 14.8096  20890.1  143.568
 15.0076  19606.9  142.833
 15.2056  19265.5  137.464
 15.4036  18526.4  135.625
 15.6016  18147  133.318
 15.7996  17620.5  131.651
 15.9976  16856.6  131.66
 16.1956  16301.9  127.41
 16.3936  16073.2  125.704
 16.5916  15889.4  125.607
 16.7896  15780.9  125.235
 16.9876  15805.8  126.77
 17.1856  15340.9  123.28
 17.3836  15047.2  122.008
 17.5816  14553.9  120.468
 17.7796  14569.3  120.462
 17.9776  14442.5  120.719
 18.1756  14807.7  120.926
 18.3736  14675.9  120.909
 18.5716  14131.6  118.401
 18.7696  14187.8  118.211
 18.9676  13855  116.632
 19.1656  13705.4  116.542
 19.3636  13628.7  116.413
 19.5616  13415.5  115.668
 19.7596  13678.6  116.216
 19.9576  13927.5  117.317
 20.1556  13770.3  117.168
 20.3536  13296.2  114.525
 20.5516  13014.9  113.745
 20.7496  12829.6  112.871
 20.9476  12702.5  112.071
 21.1456  12950.7  113.482
 21.3436  12671.9  112.21
 21.5416  12564.3  111.733
 21.7396  12431.9  110.989
 21.9376  12442.4  110.806
 22.1356  12471.6  111.051
 22.3336  12283.9  110.496
 22.5316  12363.5  110.944
 22.7296  12412.3  110.531
 22.9276  12147  110.004
 23.1256  12556.4  111.327
 23.3236  12305  110.782
 23.5216  12331.1  110.552
 23.7196  12153.5  109.7
 23.9176  12097.8  109.208
 24.1156  11948.4  108.996
 24.3136  11622.7  108.273
 24.5116  11519.8  107.326
 24.7096  11280.4  106.027
 24.9076  11022  104.838
 25.1056  10947.3  104.933
 25.3036  10804.2  103.757
 25.5016  10766.4  103.606
 25.6996  10802.4  103.366
 25.8976  10601.4  102.838
 26.0956  10762.2  103.63
 26.2936  10676.2  102.86
 26.4916  10728.4  103.001
 26.6896  10293  101.173
 26.8876  10286.7  101.001
 27.0856  10350.7  101.359
 27.2836  10249.5  100.761
 27.4816  10017.3  99.5463
 27.6796  9945.66  99.564
 27.8776  9986.7  99.6323
 28.0756  10002.5  99.9866
 28.2736  9812.05  98.625
 28.4716  9745.82  98.336
 28.6696  9822.3  98.5685
 28.8676  9561.14  97.592
 29.0656  9526.79  97.3977
 29.2636  9579.38  97.4616
 29.4616  9309.87  96.2498
 29.6596  9541.81  97.0081
 29.8576  9293.64  96.4166
 30.0556  9301.63  96.3377
 30.2536  9383.34  96.5547
 30.4516  9260.4  95.5966
 30.6496  9228.32  95.1626
 30.8476  9056.14  94.7047
 31.0456  9092.37  94.8567
 31.2436  9116.8  94.2601
 31.4416  8990.38  93.7725
 31.6396  8964.15  93.6807
 31.8376  8997.56  93.4062
 32.0356  8910.63  93.5118
 32.2336  8773.91  92.1945
 32.4316  8732.25  92.3635
 32.6296  8704.31  92.0573
 32.8276  8685.34  91.7441
 33.0256  8609.42  91.4163
 33.2236  8559.62  91.2904
 33.4216  8700.49  91.7383
 33.6196  8645.63  91.7307
 33.8176  8639.88  91.8615
 34.0156  8522.32  90.8623
 34.2136  8508.66  90.8307
 34.4116  8395.91  90.3668
 34.6096  8460.62  90.5982
 34.8076  8260.95  89.9245
 35.0056  8424.01  90.4991
 35.2036  8277.42  89.9096
 35.4016  8221.7  89.532
 35.5996  8195.74  89.425
 35.7976  8216.79  89.8189
 35.9956  8192.14  89.3339
 36.1936  8143.34  88.935
 36.3916  8097.11  88.8554
 36.5896  8088.1  89.764
 36.7876  7964.63  88.4887
 36.9856  8036.11  88.9042
 37.1836  8008.98  87.8743
 37.3816  7969.01  88.0145
 37.5796  7968.06  89.718
 37.7776  7888.16  87.6701
 37.9756  7943.29  87.8615
 38.1736  7985.86  88.2935
 38.3716  7801.01  87.5379
 38.5696  7713.04  87.4002
 38.7676  7644.79  86.5313
 38.9656  7691.64  86.4388
 39.1636  7615.01  86.2761
 39.3616  7643.81  86.3559
 39.5596  7640.45  87.1739
 39.7576  7657.46  86.6563
 39.9556  7646.52  86.2431
 40.1536  7670.51  86.5801
 40.3516  7838.51  87.5226
 40.5496  7769.83  87.3947
 40.7476  7822.54  87.689
 40.9456  7710.17  86.812
 41.1436  7834.25  87.241
 41.3416  7691.89  86.7724
 41.5396  7807.63  87.2391
 41.7376  7710.6  86.9557
 41.9356  7693.52  86.7185
 42.1336  7653.83  86.6444
 42.3316  7626.2  86.6766
 42.5296  7542.37  85.7247
 42.7276  7637.8  86.5055
 42.9256  7658.32  86.4883
 43.1236  7604.07  86.2928
 43.3216  7592.38  85.9832
 43.5196  7495.35  85.4908
 43.7176  7429.54  85.5012
 43.9156  7468.58  85.6289
 44.1136  7319.19  84.3291
 44.3116  7463.96  85.1774
 44.5096  7367.43  84.922
 44.7076  7340.07  84.6984
 44.9056  7220.85  83.895
 45.1036  7167.55  83.2202
 45.3016  7233.78  84.096
 45.4996  7149.05  83.5396
 45.6976  7102.25  83.4376
 45.8956  7138.23  83.4647
 46.0936  7221.33  83.9601
 46.2916  7096.27  83.2032
 46.4896  7182.19  83.7262
 46.6876  7078.66  83.8231
 46.8856  6915.92  82.1237
 47.0836  7045.39  83.1534
 47.2816  6913.53  82.2425
 47.4796  7021.31  82.989
 47.6776  6711.39  82.0493
 47.8756  6814.49  81.8694
 48.0736  6874.32  82.6884
 48.2716  6714.73  81.5346
 48.4696  6773.86  81.5021
 48.6676  6837.06  82.4595
 48.8656  6755.14  81.6908
 49.0636  6893.23  82.4675
 49.2616  6657.87  81.0856
 49.4596  6679.46  80.7929
 49.6576  6625.41  80.6871
 49.8556  6685.54  81.0705
 50.0536  6675.07  81.4398
 50.2516  6603.86  81.1411
 50.4496  6603.26  80.7955
 50.6476  6576.17  80.3225
 50.8456  6566.19  80.3401
 51.0436  6492.48  80.3181
 51.2416  6456.6  79.7806
 51.4396  6206.15  78.5945
 51.6376  6304.19  79.0355
 51.8356  6340.05  78.906
 52.0336  6196.8  78.5192
 52.2316  6211.9  78.954
 52.4296  6276.85  79.0652
 52.6276  6231.63  78.8895
 52.8256  6338.54  79.1216
 53.0236  6174.46  78.7219
 53.2216  6133.2  78.4895
 53.4196  6104.27  78.2307
 53.6176  6067.94  78.463
 53.8156  6036.3  77.9393
 54.0136  6067.38  78.3091
 54.2116  6076.6  78.0422
 54.4096  6113  78.3195
 54.6076  6077.69  78.4327
 54.8056  6049.46  78.0459
 55.0036  5971.25  77.9203
 55.2016  6041.65  77.939
 55.3996  6038.01  77.8793
 55.5976  5998.96  77.8093
 55.7956  5961.45  77.3859
 55.9936  5985.56  77.6836
 56.1916  5953.29  77.4826
 56.3896  5992.15  77.7272
 56.5876  5917.62  77.7856
 56.7856  5952.97  77.5088
 56.9836  5925.75  77.1159
 57.1816  5863.11  77.0846
 57.3796  5950.13  77.4519
 57.5776  5964.47  77.4776
 57.7756  5916.71  77.782
 57.9736  5861.67  77.1117
 58.1716  5947.14  77.9035
 58.3696  5910.28  77.4121
 58.5676  5949.52  77.1528
 58.7656  5933.01  77.7085
 58.9636  6081.95  78.71
 59.1616  5879.27  77.5104
 59.3596  6145.94  78.513
 59.5576  5975.01  77.4721
 59.7556  5985.21  77.9546
 59.9536  6077.7  78.4532
 60.1516  6005.87  78.8346
 60.1996  0.0000000E+00  0.0000000E+00