Folder: echemistpy/docs/examples/opeando_xrd/IS17_D/Data/IS17_D (part 103)

File: 17_Db_f00109.xye
# /beamlines/bl04/projects/cycle2025-II/20250340211-lsimonelli/DATA/IS17_D/17_Db_f00109.xye : mythproc.py merge -s 0.006 -l 0.5 -f /beamlines/bl04/inhouse/ff/FlatField/ff_20Nov2024rod8mm60s_17keV.raw -b True -c true -o xye /beamlines/bl04/projects/cycle2025-II/20250340211-lsimonelli/DATA/IS17_D/17_Db_00109.dat
# IsMon = [6765499, 6763836, 6767301]  IsPos = [-1.5000, -2.4884, -3.4988]
# Wave = 0.4962  CalPath /beamlines/bl04/projects/cycle2025-II/20250340211-lsimonelli/DATA/Align/Si_Pos1_25keV_f00001.cal
# Date = 2025-09-25_00:05:50 Dt = 4.8000  Bin = 0.0060  <imon> = 6765545 +/- 1415 (Min/Max) 6763836 / 6767301
# icurr 251.1403  mocoIn 1.7125E-05  mocoOut 0.8039  i15 7.0931e+06  imon 6.76555e+06  i7 5.0000  iEMpd_timer 4.8000  iEMpd_1 3.4966E-08  iEMpd_2 7.8472E-08  iEMpd_3 1.6889E-08  iEMpd_4 4.8209E-08  iEMhp_timer 4.8000  iEMhp_1 4.9070E-06  iEMhp_2 -2.6169E-08  iEMhp_3 -2.5154E-08  iEMhp_4 -2.2295E-08
#      9776
 1.7416  70762.9  266.09
 1.9396  49648.2  223.167
 2.1376  37499.9  193.951
 2.3356  33621  183.261
 2.5336  31812.9  178.892
 2.7316  29416.8  172.157
 2.9296  27956.3  167.994
 3.1276  27380.6  165.765
 3.3256  26348.4  162.275
 3.5236  27626.7  165.962
 3.7216  25236.5  159.891
 3.9196  24419.3  156.466
 4.1176  24363  156.074
 4.3156  25221.9  158.967
 4.5136  27507.9  164.982
 4.7116  28669.9  169.585
 4.9096  27850.7  166.569
 5.1076  27468.8  166.008
 5.3056  27529.5  165.913
 5.5036  27571.3  165.955
 5.7016  27697.8  166.291
 5.8996  28266.6  167.212
 6.0976  29126.6  171.168
 6.2956  29267.4  170.92
 6.4936  30083.9  172.474
 6.6916  30530  174.751
 6.8896  31289.3  176.751
 7.0876  32668.9  181.278
 7.2856  32287.4  179.347
 7.4836  32561.1  179.437
 7.6816  33499.6  182.526
 7.8796  34272  184.63
 8.0776  35448.5  188.766
 8.2756  37414.8  192.528
 8.4736  37912.4  193.619
 8.6716  37270.3  192.606
 8.8696  38275.6  195.675
 9.0676  37226.5  192.291
 9.2656  36101.1  190.069
 9.4636  35169.2  186.04
 9.6616  34294.5  184.442
 9.8596  33717.1  182.352
 10.0576  31718.5  177.538
 10.2556  30707.1  175.147
 10.4536  29363.4  170.869
 10.6516  28866.9  169.626
 10.8496  27728  165.643
 11.0476  26862  163.054
 11.2456  25912.9  160.688
 11.4436  25711.7  159.231
 11.6416  27560.2  165.214
 11.8396  25382.8  158.761
 12.0376  24690.8  156.22
 12.2356  24347  155.553
 12.4336  24328  155.027
 12.6316  24151.3  154.729
 12.8296  24334.2  154.914
 13.0276  24553.2  155.832
 13.2256  25081.5  157.874
 13.4236  24947.3  157.215
 13.6216  25152.2  157.859
 13.8196  27380.9  164.155
 14.0176  24079  154.527
 14.2156  23786.2  152.604
 14.4136  22633.8  150.261
 14.6116  22562.4  149.209
 14.8096  21607.5  145.995
 15.0076  20682.8  146.777
 15.2056  19761.7  139.241
 15.4036  18796.5  136.63
 15.6016  18324.5  133.99
 15.7996  17976.2  132.978
 15.9976  17649.5  134.682
 16.1956  17300  131.2
 16.3936  16868.2  128.731
 16.5916  16523.6  128.061
 16.7896  16541.5  128.189
 16.9876  16384  129.043
 17.1856  16543.4  128.04
 17.3836  15971.6  125.711
 17.5816  15482.4  124.253
 17.7796  15116.9  122.704
 17.9776  14726.1  121.873
 18.1756  14676.3  120.425
 18.3736  14490.6  120.147
 18.5716  14260.1  118.937
 18.7696  14392.1  119.05
 18.9676  14218  118.127
 19.1656  13949.9  117.589
 19.3636  13872.2  117.462
 19.5616  13794.7  117.293
 19.7596  13925.6  117.254
 19.9576  14132.3  118.166
 20.1556  14773.3  121.351
 20.3536  14553.3  119.809
 20.5516  13745.5  116.89
 20.7496  13499.4  115.686
 20.9476  13403.1  115.112
 21.1456  13198.2  114.565
 21.3436  13159.8  114.347
 21.5416  12977.3  113.563
 21.7396  12820.6  112.715
 21.9376  12792.3  112.359
 22.1356  12926.7  113.229
 22.3336  12621.5  112.025
 22.5316  12520.7  111.664
 22.7296  12512.6  110.99
 22.9276  12417.1  111.234
 23.1256  12555.6  111.325
 23.3236  12856.5  113.228
 23.5216  12765.2  112.461
 23.7196  12780.8  112.7
 23.9176  12629.2  111.56
 24.1156  12417.4  111.085
 24.3136  11962.8  109.843
 24.5116  12178.5  110.341
 24.7096  11744.1  108.17
 24.9076  11773.1  108.332
 25.1056  11376.2  106.965
 25.3036  11084.1  105.095
 25.5016  11174.9  105.56
 25.6996  11283.9  105.654
 25.8976  11147.6  105.441
 26.0956  10907.7  104.308
 26.2936  11018.1  104.503
 26.4916  11195.9  105.191
 26.6896  10972.8  104.449
 26.8876  10967.9  104.287
 27.0856  10643.2  102.79
 27.2836  10471  101.839
 27.4816  10297.6  100.936
 27.6796  10340.2  101.504
 27.8776  10459.1  101.928
 28.0756  10164.9  100.789
 28.2736  10098.5  100.046
 28.4716  9912.83  99.1704
 28.6696  10039.4  99.6544
 28.8676  9946.83  99.546
 29.0656  9769.25  98.6226
 29.2636  9875.3  98.9568
 29.4616  9422.96  96.8408
 29.6596  9435.26  96.4763
 29.8576  9293.53  96.426
 30.0556  9391.94  96.804
 30.2536  9501.94  97.174
 30.4516  9516.47  96.874
 30.6496  9593.7  97.0047
 30.8476  9545.74  97.2062
 31.0456  9565.18  97.2704
 31.2436  9628.56  96.8498
 31.4416  9359.19  95.6806
 31.6396  9412.32  95.9951
 31.8376  9605.41  96.4844
 32.0356  9371.65  95.8877
 32.2336  9401.25  95.4289
 32.4316  9053.55  94.057
 32.6296  8983.38  93.5252
 32.8276  9115.47  93.9957
 33.0256  8964.02  93.2682
 33.2236  8960.48  93.3939
 33.4216  8933.72  92.9461
 33.6196  8942.72  93.2849
 33.8176  9021.88  93.8732
 34.0156  8828.17  92.479
 34.2136  8920.2  92.9828
 34.4116  8687.98  91.9336
 34.6096  8743.86  92.1036
 34.8076  8609.69  91.8142
 35.0056  8593.18  91.3911
 35.2036  8826.81  92.8587
 35.4016  8596.82  91.5585
 35.5996  8559.19  91.3882
 35.7976  8470.72  91.1868
 35.9956  8630.73  91.6875
 36.1936  8588.42  91.305
 36.3916  8430.16  90.6653
 36.5896  8391.34  91.4512
 36.7876  8205.83  89.8215
 36.9856  8013.29  88.7791
 37.1836  8103.67  88.402
 37.3816  8068.99  88.5722
 37.5796  8141.92  90.6957
 37.7776  8319.82  90.0282
 37.9756  8314.65  89.8824
 38.1736  8172.69  89.307
 38.3716  8242.78  89.94
 38.5696  8069.11  89.3907
 38.7676  8033.56  88.7088
 38.9656  8068.98  88.5198
 39.1636  8139.93  89.1918
 39.3616  8048.86  88.6263
 39.5596  7872.07  88.4828
 39.7576  7893.03  87.9844
 39.9556  7980.79  88.1096
 40.1536  8089.95  88.9058
 40.3516  7965.27  88.2218
 40.5496  8008.51  88.7207
 40.7476  8142.66  89.4686
 40.9456  8113.7  89.0613
 41.1436  8190.43  89.1974
 41.3416  7935.84  88.1349
 41.5396  7989.16  88.2437
 41.7376  8038.26  88.7732
 41.9356  7987.27  88.3518
 42.1336  8047.91  88.8291
 42.3316  7874.56  88.0729
 42.5296  7955.71  88.044
 42.7276  8111.21  89.1376
 42.9256  7956.45  88.1579
 43.1236  7760.53  87.169
 43.3216  7904.13  87.7203
 43.5196  7872.75  87.6111
 43.7176  7755.96  87.3407
 43.9156  7619.34  86.498
 44.1136  7610.63  86.0022
 44.3116  7577.3  85.8189
 44.5096  7608.82  86.316
 44.7076  7680.55  86.6484
 44.9056  7696.77  86.6024
 45.1036  7701.04  86.2471
 45.3016  7736.19  86.9511
 45.4996  7534.59  85.7452
 45.6976  7546.29  85.9914
 45.8956  7654.75  86.4343
 46.0936  7686.97  86.3701
 46.2916  7613.69  86.1811
 46.4896  7574.92  85.9874
 46.6876  7512.29  86.359
 46.8856  7550.01  85.8285
 47.0836  7593.98  86.3129
 47.2816  7465.98  85.4734
 47.4796  7511.39  85.8406
 47.6776  7329.75  85.7558
 47.8756  7530.42  86.0686
 48.0736  7459.7  86.1238
 48.2716  7336.5  85.2258
 48.4696  7605.31  86.3522
 48.6676  7510.71  86.429
 48.8656  7462.27  85.8625
 49.0636  7576.97  86.4754
 49.2616  7362.08  85.2571
 49.4596  7434.08  85.2351
 49.6576  7394.3  85.2324
 49.8556  7369.4  85.1155
 50.0536  7395.85  85.7216
 50.2516  7402.22  85.8939
 50.4496  7367.12  85.3437
 50.6476  7358.22  84.9598
 50.8456  7319.55  84.8278
 51.0436  7191.42  84.5391
 51.2416  7144.8  83.9297
 51.4396  7063.65  83.8644
 51.6376  7136.46  84.1178
 51.8356  7126.24  83.6714
 52.0336  7052.05  83.7461
 52.2316  7050.39  84.0929
 52.4296  6993.82  83.458
 52.6276  6923.44  83.1473
 52.8256  7108.29  83.7996
 53.0236  7147.44  84.6941
 53.2216  7116.48  84.5324
 53.4196  7146.85  84.612
 53.6176  7077.72  84.7337
 53.8156  6942.2  83.5881
 54.0136  6653.22  81.9967
 54.2116  6905.2  83.1568
 54.4096  6694.66  81.9504
 54.6076  6713.76  82.4282
 54.8056  6640.22  81.7271
 55.0036  6758.9  82.7394
 55.2016  6565.36  81.119
 55.3996  6516.1  80.881
 55.5976  6561.73  81.3709
 55.7956  6590.31  81.3505
 55.9936  6683.79  82.0473
 56.1916  6550.31  81.272
 56.3896  6377.27  80.1739
 56.5876  6397.7  80.853
 56.7856  6405.96  80.3964
 56.9836  6555.02  81.0872
 57.1816  6545.07  81.4046
 57.3796  6330.57  79.8783
 57.5776  6413.65  80.284
 57.7756  6368.89  80.6936
 57.9736  6286.24  79.8164
 58.1716  6204  79.5658
 58.3696  5903.97  77.3813
 58.5676  6142.76  78.4048
 58.7656  6069.95  78.6108
 58.9636  6039.35  78.4392
 59.1616  6045.2  78.6116
 59.3596  6190.31  78.7908
 59.5576  6041.66  77.8964
 59.7556  5934.96  77.6201
 59.9536  6126.02  78.7577
 60.1516  6104.35  79.4715
 60.1996  0.0000000E+00  0.0000000E+00

File: 17_Db_f00110.xye
# /beamlines/bl04/projects/cycle2025-II/20250340211-lsimonelli/DATA/IS17_D/17_Db_f00110.xye : mythproc.py merge -s 0.006 -l 0.5 -f /beamlines/bl04/inhouse/ff/FlatField/ff_20Nov2024rod8mm60s_17keV.raw -b True -c true -o xye /beamlines/bl04/projects/cycle2025-II/20250340211-lsimonelli/DATA/IS17_D/17_Db_00110.dat
# IsMon = [6772856, 6777063, 6776827]  IsPos = [-1.4999, -2.4884, -3.4988]
# Wave = 0.4962  CalPath /beamlines/bl04/projects/cycle2025-II/20250340211-lsimonelli/DATA/Align/Si_Pos1_25keV_f00001.cal
# Date = 2025-09-25_00:22:24 Dt = 4.8000  Bin = 0.0060  <imon> = 6775582 +/- 1930 (Min/Max) 6772856 / 6777063
# icurr 252.0193  mocoIn 1.7196E-05  mocoOut 0.8066  i15 7.10306e+06  imon 6.77558e+06  i7 3.3333  iEMpd_timer 4.8000  iEMpd_1 3.4580E-08  iEMpd_2 7.9703E-08  iEMpd_3 1.6560E-08  iEMpd_4 4.8115E-08  iEMhp_timer 4.8000  iEMhp_1 4.9249E-06  iEMhp_2 -2.4734E-08  iEMhp_3 -2.3939E-08  iEMhp_4 -2.0430E-08
#      9776
 1.7416  71683.7  267.869
 1.9396  50232  224.524
 2.1376  37418.1  193.778
 2.3356  33935.8  184.153
 2.5336  31823.5  178.957
 2.7316  29315.2  171.857
 2.9296  28363.1  169.209
 3.1276  27531.8  166.231
 3.3256  26509.4  162.751
 3.5236  27369.6  165.169
 3.7216  25360.2  160.286
 3.9196  24550.6  156.888
 4.1176  24426.2  156.28
 4.3156  25482.6  159.788
 4.5136  27765.7  165.745
 4.7116  28665.1  169.57
 4.9096  27930.3  166.808
 5.1076  27596.7  166.408
 5.3056  27779.3  166.655
 5.5036  27442.8  165.56
 5.7016  27849.8  166.744
 5.8996  28257.5  167.185
 6.0976  29279.1  171.618
 6.2956  29351.2  171.158
 6.4936  30342.9  173.213
 6.6916  30760.6  175.405
 6.8896  31322.2  176.838
 7.0876  32480.8  180.847
 7.2856  32470.9  179.854
 7.4836  32752.7  179.963
 7.6816  33641.5  182.919
 7.8796  34280  184.625
 8.0776  35714.4  189.454
 8.2756  37318.3  192.268
 8.4736  37987.6  193.79
 8.6716  37469.3  193.095
 8.8696  38401.2  196.02
 9.0676  37439.9  192.869
 9.2656  36424.3  190.93
 9.4636  35517.3  186.976
 9.6616  34628.9  185.359
 9.8596  33573.9  181.962
 10.0576  31817.3  177.81
 10.2556  30918.4  175.737
 10.4536  29628.6  171.632
 10.6516  28939.1  169.836
 10.8496  27739.3  165.689
 11.0476  26951  163.327
 11.2456  26005  160.963
 11.4436  26036.4  160.226
 11.6416  27729.2  165.723
 11.8396  25540.3  159.25
 12.0376  24760.7  156.441
 12.2356  24397.6  155.703
 12.4336  24327.4  155.029
 12.6316  24271.1  155.121
 12.8296  24309.2  154.84
 13.0276  24733.7  156.398
 13.2256  25298.5  158.549
 13.4236  25247.6  158.158
 13.6216  25129.4  157.79
 13.8196  27213.6  163.656
 14.0176  24325.5  155.312
 14.2156  23864.8  152.855
 14.4136  22673  150.39
 14.6116  22288.7  148.295
 14.8096  21725.6  146.384
 15.0076  20627.9  146.567
 15.2056  19914.4  139.765
 15.4036  18767.5  136.504
 15.6016  18623  135.064
 15.7996  17962  132.917
 15.9976  17730.7  134.995
 16.1956  17356.6  131.448
 16.3936  16972.2  129.146
 16.5916  16684.6  128.69
 16.7896  16610.8  128.471
 16.9876  16577.1  129.803
 17.1856  16406.7  127.496
 17.3836  16143.5  126.383
 17.5816  15501.5  124.327
 17.7796  15174.1  122.934
 17.9776  14853.4  122.406
 18.1756  14813.5  120.987
 18.3736  14533  120.315
 18.5716  14395.7  119.501
 18.7696  14487.5  119.442
 18.9676  14301.1  118.481
 19.1656  13951  117.598
 19.3636  13918.6  117.652
 19.5616  13908.3  117.776
 19.7596  14197.9  118.407
 19.9576  14067.9  117.89
 20.1556  14836.6  121.616
 20.3536  14371.1  119.06
 20.5516  13674.5  116.585
 20.7496  13416.5  115.422
 20.9476  13417.1  115.178
 21.1456  13187  114.507
 21.3436  13223.7  114.619
 21.5416  13063.6  113.941
 21.7396  12891.9  113.03
 21.9376  12795.4  112.372
 22.1356  12932.4  113.097
 22.3336  12556.9  111.722
 22.5316  12538.3  111.732
 22.7296  12597.5  111.354
 22.9276  12559.7  111.863
 23.1256  12573.5  111.404
 23.3236  12963.7  113.712
 23.5216  12732.2  112.328
 23.7196  12706.1  112.165
 23.9176  12747.3  112.096
 24.1156  12547.8  111.685
 24.3136  12192.9  110.899
 24.5116  12145  110.197
 24.7096  12045.4  109.549
 24.9076  11738.2  108.188
 25.1056  11439.6  107.26
 25.3036  11156.1  105.432
 25.5016  11272.7  106.019
 25.6996  11197.5  105.249
 25.8976  11213.4  105.76
 26.0956  11013.8  104.818
 26.2936  10987.3  104.349
 26.4916  11184.1  105.143
 26.6896  10894.4  104.076
 26.8876  10921  104.063
 27.0856  10642.8  102.785
 27.2836  10580.6  102.377
 27.4816  10479.1  101.817
 27.6796  10367.6  101.644
 27.8776  10567.8  102.472
 28.0756  10114.2  100.534
 28.2736  10102.3  100.067
 28.4716  10084.8  100.029
 28.6696  10044.3  99.6763
 28.8676  9918.28  99.4028
 29.0656  9861.78  99.0908
 29.2636  9890.12  99.0281
 29.4616  9515.55  97.3082
 29.6596  9704.44  97.8341
 29.8576  9351.73  96.7189
 30.0556  9312.98  96.4004
 30.2536  9549.25  97.4061
 30.4516  9619.07  97.4069
 30.6496  9667.53  97.3954
 30.8476  9711.79  98.0552
 31.0456  9615.89  97.5485
 31.2436  9704.62  97.2421
 31.4416  9573.45  96.7662
 31.6396  9431.45  96.0893
 31.8376  9399.87  95.4585
 32.0356  9410.09  96.0646
 32.2336  9461.74  95.7429
 32.4316  9130.08  94.4451
 32.6296  9119.06  94.2226
 32.8276  9126.13  94.048
 33.0256  9048.61  93.7097
 33.2236  9043.75  93.8366
 33.4216  8927.06  92.9029
 33.6196  9029.12  93.7216
 33.8176  9057.3  94.054
 34.0156  8932.39  93.0207
 34.2136  8949.43  93.1366
 34.4116  8672.26  91.8475
 34.6096  8830.82  92.5613
 34.8076  8546.62  91.4786
 35.0056  8610.84  91.4805
 35.2036  8887.95  93.1814
 35.4016  8678.75  91.9877
 35.5996  8565.1  91.4188
 35.7976  8601.24  91.8927
 35.9956  8657.16  91.8316
 36.1936  8590.79  91.3236
 36.3916  8447.33  90.7588
 36.5896  8368.57  91.3256
 36.7876  8149.46  89.51
 36.9856  8077.47  89.1347
 37.1836  8258.67  89.235
 37.3816  8103.53  88.7537
 37.5796  8191.44  90.976
 37.7776  8287.92  89.87
 37.9756  8209.61  89.3279
 38.1736  8291.5  89.9627
 38.3716  8275.4  90.1481
 38.5696  8050.08  89.2864
 38.7676  8042.53  88.7569
 38.9656  8075.92  88.5619
 39.1636  8085.79  88.893
 39.3616  8107.14  88.9414
 39.5596  7924.62  88.7755
 39.7576  7915.78  88.1089
 39.9556  7999.96  88.2148
 40.1536  8094.21  88.9333
 40.3516  8074.91  88.8364
 40.5496  8112.05  89.293
 40.7476  8023.41  88.8139
 40.9456  8140.22  89.1997
 41.1436  8245.17  89.5017
 41.3416  7967.15  88.3108
 41.5396  7889.23  87.6926
 41.7376  8086.61  89.0461
 41.9356  8006.44  88.4658
 42.1336  8168.4  89.4968
 42.3316  7917  88.3052
 42.5296  7941.38  87.9573
 42.7276  8046.29  88.7772
 42.9256  7959.47  88.1769
 43.1236  7889.04  87.8833
 43.3216  7910.14  87.7502
 43.5196  7857.51  87.529
 43.7176  7820.94  87.7152
 43.9156  7569.97  86.2106
 44.1136  7736.25  86.7004
 44.3116  7705.11  86.5405
 44.5096  7615.93  86.3475
 44.7076  7796.31  87.2893
 44.9056  7852.23  87.4808
 45.1036  7735.91  86.453
 45.3016  7744.12  87
 45.4996  7746.88  86.9596
 45.6976  7593.31  86.2696
 45.8956  7646.83  86.3868
 46.0936  7693.97  86.6621
 46.2916  7643.02  86.3384
 46.4896  7802.73  87.2786
 46.6876  7637.56  87.0666
 46.8856  7536.84  85.7518
 47.0836  7589.72  86.3007
 47.2816  7439.52  85.3189
 47.4796  7515.05  85.8667
 47.6776  7394.33  86.1241
 47.8756  7539.46  86.1252
 48.0736  7531.78  86.5403
 48.2716  7410.74  85.6543
 48.4696  7576.19  86.1908
 48.6676  7557.63  86.6919
 48.8656  7508.91  86.1392
 49.0636  7531.37  86.207
 49.2616  7304.04  84.9329
 49.4596  7462.79  85.4002
 49.6576  7392.5  85.2301
 49.8556  7404.44  85.3167
 50.0536  7457.3  86.0723
 50.2516  7411.36  85.9556
 50.4496  7352.63  85.2572
 50.6476  7464.58  85.5734
 50.8456  7310.01  84.7738
 51.0436  7237.75  84.8029
 51.2416  7176.17  84.1084
 51.4396  6878.34  82.7451
 51.6376  7172.58  84.3157
 51.8356  7216.04  84.1825
 52.0336  7041.9  83.6984
 52.2316  7134.63  84.6005
 52.4296  7046.8  83.7805
 52.6276  6984.19  83.5177
 52.8256  7154.51  84.0799
 53.0236  7127.93  84.5729
 53.2216  7130.38  84.6324
 53.4196  7040.7  84.0043
 53.6176  7143.26  85.1253
 53.8156  6993.45  83.881
 54.0136  6736.84  82.5013
 54.2116  6940.67  83.382
 54.4096  6775.24  82.4481
 54.6076  6688.41  82.2633
 54.8056  6558.39  81.2293
 55.0036  6714.86  82.6082
 55.2016  6897.81  83.2384
 55.3996  6563.14  81.1808
 55.5976  6563.39  81.3638
 55.7956  6516.37  80.8903
 55.9936  6640.52  81.7891
 56.1916  6521.25  81.0933
 56.3896  6351.81  80.0131
 56.5876  6388.1  80.7934
 56.7856  6320.84  79.8694
 56.9836  6583.3  81.2759
 57.1816  6562.6  81.523
 57.3796  6397.45  80.2891
 57.5776  6468.22  80.6293
 57.7756  6293.11  80.2082
 57.9736  6275.13  79.7539
 58.1716  6254.48  79.8882
 58.3696  6108.43  78.7003
 58.5676  6106.41  78.1557
 58.7656  6161.83  79.1947
 58.9636  5978.84  78.0362
 59.1616  6180.26  79.4771
 59.3596  5992.59  77.5261
 59.5576  6123.73  78.4266
 59.7556  6024.03  78.2033
 59.9536  6081.08  78.4712
 60.1516  5915.45  78.2352
 60.1996  0.0000000E+00  0.0000000E+00