Folder: echemistpy/docs/examples/opeando_xrd/IS17_D/Data/IS17_D (part 70)

File: 17_Db_f00026.xye
# /beamlines/bl04/projects/cycle2025-II/20250340211-lsimonelli/DATA/IS17_D/17_Db_f00026.xye : mythproc.py merge -s 0.006 -l 0.5 -f /beamlines/bl04/inhouse/ff/FlatField/ff_20Nov2024rod8mm60s_17keV.raw -b True -c true -o xye /beamlines/bl04/projects/cycle2025-II/20250340211-lsimonelli/DATA/IS17_D/17_Db_00026.dat
# IsMon = [6733272, 6736785, 6735849]  IsPos = [-1.5000, -2.4885, -3.4988]
# Wave = 0.4962  CalPath /beamlines/bl04/projects/cycle2025-II/20250340211-lsimonelli/DATA/Align/Si_Pos1_25keV_f00001.cal
# Date = 2025-09-24_00:56:08 Dt = 4.8000  Bin = 0.0060  <imon> = 6735302 +/- 1485 (Min/Max) 6733272 / 6736785
# icurr 248.7273  mocoIn 1.6967E-05  mocoOut 0.7960  i15 7.05732e+06  imon 6.7353e+06  i7 3.6667  iEMpd_timer 4.8000  iEMpd_1 3.5627E-08  iEMpd_2 7.7925E-08  iEMpd_3 1.6882E-08  iEMpd_4 4.9339E-08  iEMhp_timer 4.8000  iEMhp_1 4.8611E-06  iEMhp_2 -2.3821E-08  iEMhp_3 -2.4445E-08  iEMhp_4 -2.2800E-08
#      9776
 1.7416  69252.1  263.273
 1.9396  47505.5  218.34
 2.1376  34310.3  185.547
 2.3356  31142.5  176.402
 2.5336  28810.3  170.266
 2.7316  26266.5  162.666
 2.9296  25110.3  159.202
 3.1276  24543.7  156.958
 3.3256  23740.8  154.015
 3.5236  25683  160.144
 3.7216  23214.8  153.349
 3.9196  22785.8  151.135
 4.1176  22783.7  150.93
 4.3156  23859.5  154.616
 4.5136  26219.7  161.064
 4.7116  27243.6  165.307
 4.9096  26451.8  162.336
 5.1076  26465.6  162.956
 5.3056  26328.8  162.245
 5.5036  26172  161.768
 5.7016  26592.6  162.939
 5.8996  27107  163.745
 6.0976  27933.3  167.628
 6.2956  27949.1  167.022
 6.4936  28454  167.732
 6.6916  28920.3  170.074
 6.8896  29811.8  172.527
 7.0876  30854.9  176.178
 7.2856  30341.4  173.857
 7.4836  30676.7  174.163
 7.6816  31220.2  176.205
 7.8796  32065.1  178.566
 8.0776  33588.1  183.732
 8.2756  35049.9  186.341
 8.4736  35830.4  188.21
 8.6716  34816.5  186.134
 8.8696  35755.5  189.145
 9.0676  34987.4  186.443
 9.2656  33826.6  183.995
 9.4636  32816.8  179.731
 9.6616  31998.1  178.18
 9.8596  31528.9  176.331
 10.0576  29555.8  171.364
 10.2556  28879.3  169.836
 10.4536  28205  167.44
 10.6516  27599.1  165.848
 10.8496  26386.2  161.592
 11.0476  25309  158.221
 11.2456  24792.4  157.161
 11.4436  25160.5  157.522
 11.6416  24900.8  157.044
 11.8396  23786.4  153.685
 12.0376  23091.7  151.06
 12.2356  22631.5  149.992
 12.4336  22734.1  149.856
 12.6316  22732  150.111
 12.8296  22786.3  149.912
 13.0276  22960.5  150.687
 13.2256  23343.2  152.299
 13.4236  23292.6  151.908
 13.6216  23483.5  152.528
 13.8196  25646.7  158.841
 14.0176  22597.9  149.696
 14.2156  22457  148.279
 14.4136  21245.8  145.575
 14.6116  20849.1  143.434
 14.8096  20221.4  141.226
 15.0076  19286.7  141.729
 15.2056  18554.8  134.912
 15.4036  17507.8  131.847
 15.6016  17440.4  130.707
 15.7996  16767.6  128.427
 15.9976  16606.8  130.646
 16.1956  16079.6  126.503
 16.3936  15888.9  124.952
 16.5916  15692.7  124.817
 16.7896  15607.5  124.53
 16.9876  15435.1  125.244
 17.1856  15167.6  122.58
 17.3836  14820.7  121.088
 17.5816  14498.2  120.23
 17.7796  14488.6  120.121
 17.9776  14092.2  119.232
 18.1756  14297.7  118.863
 18.3736  14123.2  118.604
 18.5716  13985.3  117.784
 18.7696  13855.1  116.807
 18.9676  13560.7  115.367
 19.1656  13371.1  115.126
 19.3636  13231.7  114.704
 19.5616  13128.9  114.428
 19.7596  13522.1  115.545
 19.9576  13581.2  115.842
 20.1556  13413.1  115.621
 20.3536  12926.1  112.92
 20.5516  12749.3  112.578
 20.7496  12519.2  111.41
 20.9476  12592.9  111.584
 21.1456  12409.6  111.085
 21.3436  12344.8  110.748
 21.5416  12220.1  110.195
 21.7396  12032.1  109.194
 21.9376  11915.9  108.445
 22.1356  12172.3  109.875
 22.3336  11746.5  108.041
 22.5316  11694.2  107.906
 22.7296  11769.9  107.642
 22.9276  11650.8  107.742
 23.1256  11784.7  107.853
 23.3236  12155.1  110.11
 23.5216  12137.1  109.666
 23.7196  12145.3  109.874
 23.9176  12087  109.147
 24.1156  11699.5  107.838
 24.3136  11437.8  107.401
 24.5116  11348.4  106.512
 24.7096  11172.9  105.512
 24.9076  10997.9  104.709
 25.1056  10792.7  103.914
 25.3036  10569.8  102.62
 25.5016  10571.6  102.67
 25.6996  10487.6  101.853
 25.8976  10504  102.359
 26.0956  10416.6  101.935
 26.2936  10471  101.874
 26.4916  10690.9  102.797
 26.6896  10328.7  101.342
 26.8876  10205.9  100.594
 27.0856  9987.53  99.5264
 27.2836  9969.4  99.3733
 27.4816  9833.82  98.6315
 27.6796  9767.32  98.6579
 27.8776  10086.9  100.122
 28.0756  9746.88  98.695
 28.2736  9684.26  97.9704
 28.4716  9481.78  96.9928
 28.6696  9547.75  97.1789
 28.8676  9270.64  96.0968
 29.0656  9263.92  96.0432
 29.2636  9286.25  95.8792
 29.4616  8885.63  94.0332
 29.6596  9084.57  94.6614
 29.8576  8900.57  94.3596
 30.0556  8855.98  94.0043
 30.2536  9021.84  94.6766
 30.4516  9105.55  94.7756
 30.6496  9034.75  94.1493
 30.8476  8967.36  94.221
 31.0456  8989.4  94.3071
 31.2436  9075.31  94.0328
 31.4416  8878.11  93.1816
 31.6396  8900.81  93.337
 31.8376  8884.8  92.7878
 32.0356  8913.95  93.5063
 32.2336  8902.26  92.866
 32.4316  8544.46  91.3641
 32.6296  8645.71  91.6811
 32.8276  8481.06  90.6592
 33.0256  8556.76  91.1218
 33.2236  8435.6  90.6229
 33.4216  8491.53  90.6169
 33.6196  8433.97  90.5926
 33.8176  8414.91  90.6597
 34.0156  8318.49  89.7729
 34.2136  8377.77  90.11
 34.4116  8202.95  89.3301
 34.6096  8223.69  89.3181
 34.8076  8114.37  89.1346
 35.0056  8070.82  88.5639
 35.2036  8294.28  90.0183
 35.4016  8057.44  88.6278
 35.5996  7990  88.2924
 35.7976  8030.42  88.7762
 35.9956  8242.95  89.6033
 36.1936  8101.18  88.6661
 36.3916  8003.99  88.3401
 36.5896  7910.15  89.2463
 36.7876  7643.59  86.6903
 36.9856  7760.16  87.364
 37.1836  7495.49  85.0086
 37.3816  7645.86  86.2163
 37.5796  7824.74  88.916
 37.7776  7899.56  87.7383
 37.9756  7907.26  87.6626
 38.1736  7840.72  87.4798
 38.3716  7711.08  87.0239
 38.5696  7622.69  86.8885
 38.7676  7434.93  85.335
 38.9656  7623.97  86.0487
 39.1636  7650.73  86.4411
 39.3616  7625.21  86.2537
 39.5596  7369.11  85.6054
 39.7576  7506.53  85.8029
 39.9556  7541.9  85.647
 40.1536  7645.91  86.4332
 40.3516  7611.8  86.2571
 40.5496  7658.69  86.562
 40.7476  7698.57  86.9981
 40.9456  7661.41  86.5462
 41.1436  7680.02  86.3786
 41.3416  7531.04  85.8639
 41.5396  7582.76  85.9703
 41.7376  7544.31  86.0101
 41.9356  7583.67  86.0954
 42.1336  7670.98  86.7245
 42.3316  7440.96  85.6117
 42.5296  7453.69  85.2136
 42.7276  7498.64  85.7054
 42.9256  7498.14  85.5801
 43.1236  7417.84  85.2222
 43.3216  7398.32  84.9641
 43.5196  7439.22  85.1593
 43.7176  7358.84  85.0907
 43.9156  7190.38  84.0203
 44.1136  7135.01  83.2632
 44.3116  7339.35  84.4639
 44.5096  7202.21  83.9707
 44.7076  7105.76  83.3385
 44.9056  7457.43  85.2553
 45.1036  7318.9  84.0884
 45.3016  7282.25  84.3743
 45.4996  7198.19  83.8227
 45.6976  7135.72  83.6305
 45.8956  7203.19  83.839
 46.0936  7329  84.3283
 46.2916  7229.16  83.9713
 46.4896  7213.39  83.9133
 46.6876  7108.81  84.0018
 46.8856  7218.41  83.9043
 47.0836  7123.34  83.6141
 47.2816  7032.2  82.9503
 47.4796  7095.78  83.4325
 47.6776  6990.75  83.737
 47.8756  7098.36  83.5673
 48.0736  7091.55  83.9807
 48.2716  7014.8  83.3379
 48.4696  7255.4  84.3433
 48.6676  7068.62  83.8351
 48.8656  7119.12  83.8646
 49.0636  7127.68  83.8602
 49.2616  6924.77  82.6974
 49.4596  7087.69  83.2169
 49.6576  7036.17  83.14
 49.8556  6966.1  82.7524
 50.0536  6979.35  83.272
 50.2516  6979.05  83.3808
 50.4496  6926.4  82.7427
 50.6476  6968.71  82.6799
 50.8456  6893.01  82.3049
 51.0436  6798.42  82.1914
 51.2416  6729.57  81.4514
 51.4396  6498.56  80.4336
 51.6376  6736.06  81.7127
 51.8356  6737.88  81.3431
 52.0336  6712.58  81.7079
 52.2316  6707.32  82.0388
 52.4296  6682.15  81.5838
 52.6276  6544.34  80.8452
 52.8256  6782.85  81.8555
 53.0236  6750.11  82.3058
 53.2216  6624.29  81.54
 53.4196  6645.07  81.6104
 53.6176  6649.9  82.1277
 53.8156  6578.61  81.3642
 54.0136  6392.6  80.3683
 54.2116  6479.11  80.5557
 54.4096  6377.12  79.9763
 54.6076  6342.79  80.1032
 54.8056  6223.55  79.126
 55.0036  6410.96  80.5929
 55.2016  6243.92  79.1006
 55.3996  6140.49  78.515
 55.5976  6180.39  78.9696
 55.7956  6242.78  79.176
 55.9936  6253.58  79.3764
 56.1916  6173.77  78.898
 56.3896  5978.37  77.6135
 56.5876  6055.31  78.6591
 56.7856  5989.19  77.7359
 56.9836  6104.41  78.2549
 57.1816  6149.99  78.9171
 57.3796  6001.66  77.7635
 57.5776  6033.11  77.8681
 57.7756  5857.62  77.3728
 57.9736  6034.57  78.2048
 58.1716  5860.79  77.3268
 58.3696  5633.15  75.5802
 58.5676  5725.64  75.6796
 58.7656  5767.72  76.6225
 58.9636  5721.17  76.3355
 59.1616  5740.39  76.5925
 59.3596  5659.65  75.3449
 59.5576  5736.17  75.9083
 59.7556  5600.22  75.4061
 59.9536  5724.3  76.1384
 60.1516  5661.95  76.5444
 60.1996  0.0000000E+00  0.0000000E+00

File: 17_Db_f00027.xye
# /beamlines/bl04/projects/cycle2025-II/20250340211-lsimonelli/DATA/IS17_D/17_Db_f00027.xye : mythproc.py merge -s 0.006 -l 0.5 -f /beamlines/bl04/inhouse/ff/FlatField/ff_20Nov2024rod8mm60s_17keV.raw -b True -c true -o xye /beamlines/bl04/projects/cycle2025-II/20250340211-lsimonelli/DATA/IS17_D/17_Db_00027.dat
# IsMon = [6739116, 6745802, 6743979]  IsPos = [-1.5001, -2.4885, -3.4988]
# Wave = 0.4962  CalPath /beamlines/bl04/projects/cycle2025-II/20250340211-lsimonelli/DATA/Align/Si_Pos1_25keV_f00001.cal
# Date = 2025-09-24_01:12:41 Dt = 4.8000  Bin = 0.0060  <imon> = 6742966 +/- 2822 (Min/Max) 6739116 / 6745802
# icurr 249.6303  mocoIn 1.7030E-05  mocoOut 0.7989  i15 7.0622e+06  imon 6.74297e+06  i7 5.6667  iEMpd_timer 4.8000  iEMpd_1 3.6070E-08  iEMpd_2 7.6755E-08  iEMpd_3 1.6945E-08  iEMpd_4 4.6723E-08  iEMhp_timer 4.8000  iEMhp_1 4.8769E-06  iEMhp_2 -2.5017E-08  iEMhp_3 -2.4348E-08  iEMhp_4 -2.1180E-08
#      9776
 1.7416  69875.8  264.492
 1.9396  47781.3  219.003
 2.1376  34188.9  184.759
 2.3356  31052.7  176.172
 2.5336  28646  169.803
 2.7316  26333.4  162.878
 2.9296  25351.2  159.973
 3.1276  24740.8  157.587
 3.3256  23970.1  154.752
 3.5236  25680.5  160.148
 3.7216  23343.9  153.765
 3.9196  22929.5  151.614
 4.1176  22967.5  151.545
 4.3156  23793.5  154.402
 4.5136  26343.3  161.44
 4.7116  27262.2  165.365
 4.9096  26609.8  162.812
 5.1076  26542.3  163.2
 5.3056  26584  163.036
 5.5036  26098.3  161.541
 5.7016  26541.4  162.784
 5.8996  27241.4  164.46
 6.0976  27988.6  167.799
 6.2956  28068.8  167.373
 6.4936  28776.2  168.675
 6.6916  29010.3  170.335
 6.8896  29936.4  172.878
 7.0876  31013.7  176.639
 7.2856  30463.4  174.205
 7.4836  30951.6  174.943
 7.6816  31322.6  176.494
 7.8796  32096.3  178.649
 8.0776  33712.3  184.059
 8.2756  35154.6  186.608
 8.4736  35892.3  188.36
 8.6716  35009.2  186.632
 8.8696  35797.2  189.262
 9.0676  34932.5  186.301
 9.2656  33865.3  184.112
 9.4636  32833.7  179.779
 9.6616  32386.2  179.267
 9.8596  31874.9  177.294
 10.0576  29646.6  171.622
 10.2556  29035.1  170.302
 10.4536  28405.8  168.05
 10.6516  27760.2  166.335
 10.8496  26358.5  161.515
 11.0476  25549.6  158.961
 11.2456  24750.6  157.022
 11.4436  25071.6  157.247
 11.6416  24821.1  156.781
 11.8396  23476.8  152.742
 12.0376  23251.7  151.577
 12.2356  23009.1  151.24
 12.4336  22839.6  150.212
 12.6316  22716.5  150.074
 12.8296  22833.9  150.084
 13.0276  23139.7  151.27
 13.2256  23295.7  152.14
 13.4236  23336.5  152.044
 13.6216  23707.1  153.259
 13.8196  25653.3  158.865
 14.0176  22625.6  149.777
 14.2156  22405.5  148.102
 14.4136  21269.4  145.656
 14.6116  20899.1  143.587
 14.8096  20376.1  141.805
 15.0076  19367.6  142.022
 15.2056  18526.9  134.803
 15.4036  17660  132.406
 15.6016  17400.5  130.55
 15.7996  16751.3  128.354
 15.9976  16730.6  131.135
 16.1956  16340.6  127.525
 16.3936  16018.7  125.465
 16.5916  15725.9  124.95
 16.7896  15734.2  125.04
 16.9876  15620.5  125.997
 17.1856  15174.8  122.611
 17.3836  15060.4  122.067
 17.5816  14538.5  120.404
 17.7796  14503.7  120.192
 17.9776  14081.2  119.182
 18.1756  14382  119.213
 18.3736  14335  119.485
 18.5716  13870.7  117.294
 18.7696  13800.2  116.58
 18.9676  13593.2  115.494
 19.1656  13302.2  114.828
 19.3636  13231.5  114.703
 19.5616  13128.4  114.424
 19.7596  13487.6  115.402
 19.9576  13632.5  116.056
 20.1556  13396.6  115.548
 20.3536  12980.1  113.139
 20.5516  12783  112.719
 20.7496  12550.9  111.551
 20.9476  12534.9  111.463
 21.1456  12502.5  111.491
 21.3436  12409.9  111.038
 21.5416  12211.1  110.158
 21.7396  12089.1  109.453
 21.9376  11996.9  108.81
 22.1356  12168.4  109.856
 22.3336  11823.2  108.387
 22.5316  11918.4  108.93
 22.7296  11862  108.054
 22.9276  11878.5  108.783
 23.1256  11886.8  108.311
 23.3236  12180.9  110.232
 23.5216  12125.5  109.623
 23.7196  12079.6  109.584
 23.9176  12141.8  109.413
 24.1156  11850.4  108.532
 24.3136  11563.1  107.991
 24.5116  11489.6  107.165
 24.7096  11309.6  106.149
 24.9076  11108.8  105.251
 25.1056  10758.7  103.747
 25.3036  10538.1  102.467
 25.5016  10626.1  102.931
 25.6996  10628.7  102.537
 25.8976  10609.2  102.875
 26.0956  10410.7  101.913
 26.2936  10368.1  101.366
 26.4916  10785.8  103.255
 26.6896  10368.8  101.537
 26.8876  10266  100.895
 27.0856  10065  99.912
 27.2836  10031.8  99.6882
 27.4816  9867.27  98.7999
 27.6796  9945  99.3245
 27.8776  10042.4  99.9007
 28.0756  9572.77  97.8082
 28.2736  9744.92  98.2785
 28.4716  9508.17  97.1297
 28.6696  9521.81  97.0516
 28.8676  9404.58  96.7954
 29.0656  9308.24  96.2736
 29.2636  9290.57  95.9223
 29.4616  9063.78  94.9664
 29.6596  8960.85  94.0051
 29.8576  8964.5  94.6885
 30.0556  8835.8  93.8909
 30.2536  8978.81  94.4447
 30.4516  9112.7  94.8115
 30.6496  9168.18  94.8477
 30.8476  9052.05  94.6663
 31.0456  9099.13  94.889
 31.2436  8924.01  93.4998
 31.4416  8982.4  93.7322
 31.6396  8869.49  93.1812
 31.8376  8777.83  92.2374
 32.0356  8887.94  93.343
 32.2336  8858.41  92.6446
 32.4316  8667.27  92.019
 32.6296  8524.01  91.0376
 32.8276  8655.35  91.592
 33.0256  8521.59  90.9374
 33.2236  8585.27  91.4193
 33.4216  8510.05  90.7195
 33.6196  8466.1  90.7621
 33.8176  8400.85  90.5703
 34.0156  8440.82  90.4622
 34.2136  8303.76  89.7915
 34.4116  8160.33  89.0955
 34.6096  8234.62  89.3799
 34.8076  8130.53  89.2216
 35.0056  8256.63  89.5847
 35.2036  8341.81  90.2774
 35.4016  8032.62  88.4869
 35.5996  8002.63  88.3634
 35.7976  8013.56  88.6914
 35.9956  8230.77  89.5441
 36.1936  8177.65  89.0944
 36.3916  7991.5  88.2738
 36.5896  7901.85  89.2048
 36.7876  7785.74  87.4787
 36.9856  7615.37  86.5447
 37.1836  7707.79  86.2021
 37.3816  7632.52  86.1367
 37.5796  7741.41  88.4356
 37.7776  7778.68  87.0633
 37.9756  7725.03  86.6273
 38.1736  7805.63  87.2902
 38.3716  7831.21  87.6985
 38.5696  7673.58  87.1665
 38.7676  7568.96  86.104
 38.9656  7578.59  85.7874
 39.1636  7569.9  85.977
 39.3616  7689.76  86.6157
 39.5596  7425.32  85.9252
 39.7576  7555.14  86.0797
 39.9556  7578.4  85.8601
 40.1536  7663.23  86.5307
 40.3516  7644.64  86.4372
 40.5496  7646.42  86.4814
 40.7476  7705.22  87.0353
 40.9456  7586.03  86.1211
 41.1436  7706.75  86.5337
 41.3416  7475.97  85.546
 41.5396  7580.93  85.9532
 41.7376  7563.1  86.1102
 41.9356  7523.83  85.7448
 42.1336  7736.86  87.0987
 42.3316  7509.5  86.002
 42.5296  7651.94  86.344
 42.7276  7536.85  85.9242
 42.9256  7560.56  85.9405
 43.1236  7455.4  85.4374
 43.3216  7603.24  86.1332
 43.5196  7320.77  84.4162
 43.7176  7489.38  85.833
 43.9156  7179.68  83.9518
 44.1136  7243.82  83.8922
 44.3116  7244.97  83.9112
 44.5096  7214.52  84.0371
 44.7076  7232.5  84.0731
 44.9056  7368.24  84.7474
 45.1036  7176.13  83.2699
 45.3016  7244.23  84.153
 45.4996  7379.34  84.872
 45.6976  7086.81  83.3452
 45.8956  7217.34  83.9211
 46.0936  7383.09  84.629
 46.2916  7290.39  84.3253
 46.4896  7316.65  84.5165
 46.6876  7204.76  84.5726
 46.8856  7189.68  83.7403
 47.0836  7180.43  83.9412
 47.2816  7048.38  83.0428
 47.4796  7176.21  83.9008
 47.6776  6980.62  83.6695
 47.8756  7038.55  83.2111
 48.0736  7060.89  83.7924
 48.2716  7013.82  83.3248
 48.4696  7203.35  84.0395
 48.6676  7208.49  84.6625
 48.8656  7147.51  84.0124
 49.0636  7152.13  84.0157
 49.2616  6956.73  82.8834
 49.4596  7060.86  83.0625
 49.6576  7058.82  83.2781
 49.8556  7071.33  83.3763
 50.0536  7088.72  84.0083
 50.2516  6973.3  83.3496
 50.4496  6959.8  82.9468
 50.6476  6944.21  82.5392
 50.8456  7072.22  83.3852
 51.0436  6681.73  81.4783
 51.2416  6728.75  81.4437
 51.4396  6730.41  81.8501
 51.6376  6685.05  81.3894
 51.8356  6719.54  81.2296
 52.0336  6749.41  81.9337
 52.2316  6640.81  81.6288
 52.4296  6652.41  81.4055
 52.6276  6623.12  81.3263
 52.8256  6753.16  81.69
 53.0236  6716.37  82.097
 53.2216  6636.71  81.613
 53.4196  6613.9  81.4125
 53.6176  6765.13  82.8483
 53.8156  6546.93  81.1642
 54.0136  6399.45  80.4135
 54.2116  6526.7  80.849
 54.4096  6267.84  79.2998
 54.6076  6390.84  80.4153
 54.8056  6194.68  78.9586
 55.0036  6429.03  80.6935
 55.2016  6315.42  79.5558
 55.3996  6235.82  79.1298
 55.5976  6214.99  79.1627
 55.7956  6234.38  79.1171
 55.9936  6201.19  79.0442
 56.1916  6115.41  78.5049
 56.3896  6070.86  78.2109
 56.5876  6049.52  78.6134
 56.7856  6000.66  77.816
 56.9836  6162.9  78.6389
 57.1816  6056.74  78.3744
 57.3796  5979.19  77.6096
 57.5776  6099.6  78.281
 57.7756  5914.85  77.7459
 57.9736  5945.9  77.6242
 58.1716  5983.93  78.1438
 58.3696  5733.63  76.2422
 58.5676  5734.44  75.7319
 58.7656  5721.09  76.3032
 58.9636  5674.56  76.0224
 59.1616  5665.49  76.0872
 59.3596  5691.68  75.5556
 59.5576  5785.54  76.2316
 59.7556  5782  76.6175
 59.9536  5770.31  76.4411
 60.1516  5678.95  76.6566
 60.1996  0.0000000E+00  0.0000000E+00