Folder: echemistpy/docs/examples/opeando_xrd/IS17_D/Data/IS17_D (part 20)

File: 17_Da_f00057.xye
# /beamlines/bl04/projects/cycle2025-II/20250340211-lsimonelli/DATA/IS17_D/17_Da_f00057.xye : mythproc.py merge -s 0.006 -l 0.5 -f /beamlines/bl04/inhouse/ff/FlatField/ff_20Nov2024rod8mm60s_17keV.raw -b True -c true -o xye /beamlines/bl04/projects/cycle2025-II/20250340211-lsimonelli/DATA/IS17_D/17_Da_00057.dat
# IsMon = [6774168, 6774079, 6774426]  IsPos = [-1.5000, -2.4884, -3.4988]
# Wave = 0.4962  CalPath /beamlines/bl04/projects/cycle2025-II/20250340211-lsimonelli/DATA/Align/Si_Pos1_25keV_f00001.cal
# Date = 2025-09-24_09:25:02 Dt = 4.8000  Bin = 0.0060  <imon> = 6774224 +/- 147 (Min/Max) 6774079 / 6774426
# icurr 251.2939  mocoIn 1.7146E-05  mocoOut 0.8047  i15 7.09407e+06  imon 6.77422e+06  i7 4.6667  iEMpd_timer 4.8000  iEMpd_1 3.4721E-08  iEMpd_2 7.9554E-08  iEMpd_3 1.7137E-08  iEMpd_4 4.6973E-08  iEMhp_timer 4.8000  iEMhp_1 4.9110E-06  iEMhp_2 -2.5887E-08  iEMhp_3 -2.4739E-08  iEMhp_4 -2.3919E-08
#      9776
 1.7416  70506.1  265.607
 1.9396  46363.1  215.659
 2.1376  33135.8  182.316
 2.3356  29337.4  171.188
 2.5336  27521.5  166.389
 2.7316  25509  160.3
 2.9296  24714.9  157.954
 3.1276  24211  155.877
 3.3256  23789.5  154.189
 3.5236  25569.6  159.654
 3.7216  23635.2  154.739
 3.9196  23160.2  152.407
 4.1176  22881.1  151.248
 4.3156  24459.2  156.547
 4.5136  26633.3  162.336
 4.7116  27543.6  166.226
 4.9096  27079.4  164.256
 5.1076  26716.3  163.728
 5.3056  27004.2  164.34
 5.5036  26799  163.606
 5.7016  27233.1  164.894
 5.8996  27856.4  165.984
 6.0976  28574.4  169.55
 6.2956  29080.2  170.379
 6.4936  29788.8  171.637
 6.6916  30127.8  173.602
 6.8896  31002.2  175.962
 7.0876  32293.9  180.246
 7.2856  32003.7  178.568
 7.4836  32365.7  178.908
 7.6816  33203.8  181.746
 7.8796  34947.2  186.452
 8.0776  36320.4  191.072
 8.2756  37842.5  193.631
 8.4736  38593.8  195.349
 8.6716  37933.6  194.308
 8.8696  37957.4  194.851
 9.0676  36990.9  191.711
 9.2656  36163.3  190.252
 9.4636  35651.5  187.296
 9.6616  34986.7  186.324
 9.8596  33943.3  182.975
 10.0576  31750.5  177.647
 10.2556  30816.3  175.439
 10.4536  29885.4  172.375
 10.6516  29019.3  170.049
 10.8496  28213.3  167.086
 11.0476  27463.2  164.874
 11.2456  26707.6  163.125
 11.4436  26975  163.105
 11.6416  26947.3  163.387
 11.8396  25280.1  158.454
 12.0376  24966.8  157.105
 12.2356  24608.7  156.384
 12.4336  24555.4  155.749
 12.6316  24218  154.944
 12.8296  24471.6  155.394
 13.0276  25161.4  157.75
 13.2256  25116.9  157.979
 13.4236  25050.4  157.538
 13.6216  24799.2  156.762
 13.8196  24689.2  156.182
 14.0176  24431.9  155.65
 14.2156  23933.9  153.098
 14.4136  22697.5  150.461
 14.6116  22595.4  149.329
 14.8096  21849.5  146.826
 15.0076  20597.5  146.384
 15.2056  20145.9  140.587
 15.4036  19345  138.603
 15.6016  18883.9  136.011
 15.7996  18409.3  134.579
 15.9976  17720.4  135.001
 16.1956  16971.3  129.987
 16.3936  16763.6  128.363
 16.5916  16564.4  128.234
 16.7896  16554  128.25
 16.9876  16576  129.816
 17.1856  16337.6  127.227
 17.3836  15741.3  124.788
 17.5816  15341.2  123.681
 17.7796  15357  123.67
 17.9776  14942.3  122.786
 18.1756  14963.6  121.572
 18.3736  14758  121.252
 18.5716  14670.5  120.638
 18.7696  14587.3  119.867
 18.9676  14219.3  118.152
 19.1656  14230.6  118.764
 19.3636  14129.8  118.545
 19.5616  14177.5  118.91
 19.7596  14184.4  118.343
 19.9576  14673.9  120.418
 20.1556  14709.2  121.102
 20.3536  14086.1  117.882
 20.5516  13745.5  116.893
 20.7496  13309.9  114.877
 20.9476  13287.8  114.623
 21.1456  13491.7  115.836
 21.3436  13193.6  114.494
 21.5416  13068.7  113.954
 21.7396  12990.3  113.459
 21.9376  12959.7  113.084
 22.1356  12914.2  113.167
 22.3336  12936  113.408
 22.5316  12818.7  112.98
 22.7296  12958.2  112.951
 22.9276  12820.6  113.026
 23.1256  12962.8  113.124
 23.3236  12902.9  113.425
 23.5216  12691.3  112.141
 23.7196  12520.5  111.551
 23.9176  12327  110.223
 24.1156  12306.7  110.607
 24.3136  12120.4  110.564
 24.5116  12084.6  109.925
 24.7096  11787  108.38
 24.9076  11476.8  106.968
 25.1056  11353.8  106.861
 25.3036  11246  105.861
 25.5016  11187.4  105.621
 25.6996  11135.9  104.957
 25.8976  11115.2  105.292
 26.0956  11131.2  105.388
 26.2936  11125.5  105.006
 26.4916  11207.6  105.28
 26.6896  10845.3  103.857
 26.8876  10708.5  103.049
 27.0856  10777.9  103.442
 27.2836  10652.5  102.727
 27.4816  10488  101.861
 27.6796  10310  101.37
 27.8776  10339.1  101.371
 28.0756  10351.8  101.721
 28.2736  10268.5  100.893
 28.4716  10100.1  100.11
 28.6696  9983.84  99.3785
 28.8676  10026  99.9389
 29.0656  9882.48  99.1981
 29.2636  9846.26  98.8099
 29.4616  9753.48  98.5254
 29.6596  9820.38  98.4266
 29.8576  9664.41  98.3322
 30.0556  9690.41  98.3404
 30.2536  9866.46  99.0197
 30.4516  9553.94  97.0924
 30.6496  9656.95  97.3359
 30.8476  9669.1  97.8468
 31.0456  9385.62  96.3615
 31.2436  9415.07  95.7793
 31.4416  9311.79  95.4318
 31.6396  9299.97  95.4185
 31.8376  9417.78  95.5655
 32.0356  9247.21  95.2584
 32.2336  9184.44  94.3248
 32.4316  9197.09  94.7996
 32.6296  9166.48  94.4761
 32.8276  9145.48  94.139
 33.0256  9035.21  93.6464
 33.2236  8935.44  93.2761
 33.4216  9139.32  94.0201
 33.6196  9055.62  93.8853
 33.8176  8968.85  93.6026
 34.0156  8909.84  92.9082
 34.2136  8778.41  92.251
 34.4116  8809.48  92.572
 34.6096  8694.11  91.8374
 34.8076  8652.29  92.0222
 35.0056  8702.94  91.986
 35.2036  8649.56  91.9142
 35.4016  8669.91  91.9463
 35.5996  8657.03  91.9107
 35.7976  8439.78  91.0303
 35.9956  8427.17  90.6084
 36.1936  8484.32  90.7823
 36.3916  8410.56  90.5618
 36.5896  8404.87  91.5031
 36.7876  8334.99  90.533
 36.9856  8411.54  90.9748
 37.1836  8368.34  89.8323
 37.3816  8402.06  90.3826
 37.5796  8327.6  91.7222
 37.7776  8136.28  89.0338
 37.9756  8161  89.0472
 38.1736  8316.31  90.0949
 38.3716  8059.47  88.9676
 38.5696  8166.45  89.9312
 38.7676  8032.33  88.6972
 38.9656  7945.57  87.8518
 39.1636  8013.74  88.4881
 39.3616  8073.86  88.7586
 39.5596  7864.23  88.4343
 39.7576  7974.83  88.4271
 39.9556  7914.63  87.7372
 40.1536  8061.46  88.7482
 40.3516  8121.6  89.0924
 40.5496  8132  89.4161
 40.7476  8142.6  89.4702
 40.9456  8205.79  89.5722
 41.1436  8118.73  88.8137
 41.3416  8079.15  88.9333
 41.5396  7939.74  87.9696
 41.7376  8128.77  89.2758
 41.9356  7942.88  88.1128
 42.1336  7982.8  88.4811
 42.3316  7910.93  88.2837
 42.5296  7975.57  88.155
 42.7276  7977.8  88.4081
 42.9256  8062.04  88.7431
 43.1236  7814.13  87.4736
 43.3216  7847.04  87.4078
 43.5196  7843.92  87.4579
 43.7176  7853.96  87.9106
 43.9156  7663.02  86.7453
 44.1136  7636.66  86.1471
 44.3116  7697.35  86.504
 44.5096  7679.21  86.7139
 44.7076  7675.41  86.6212
 44.9056  7622.04  86.1847
 45.1036  7549.8  85.4004
 45.3016  7482.05  85.5188
 45.4996  7386.72  84.9087
 45.6976  7414.41  85.246
 45.8956  7461.93  85.3343
 46.0936  7443.49  84.9865
 46.2916  7549.05  85.8147
 46.4896  7439.45  85.2147
 46.6876  7281.76  85.0254
 46.8856  7326.08  84.547
 47.0836  7235.88  84.2663
 47.2816  7211.01  83.998
 47.4796  7251.71  84.3312
 47.6776  7021.15  83.9208
 47.8756  7143.89  83.8352
 48.0736  7194.78  84.5812
 48.2716  7028.32  83.4179
 48.4696  7158.83  83.7857
 48.6676  7181.83  84.506
 48.8656  7048.66  83.4496
 49.0636  7033.06  83.2946
 49.2616  6888.5  82.4762
 49.4596  6910.89  82.1748
 49.6576  7007.41  82.9641
 49.8556  6936.16  82.5756
 50.0536  6916.14  82.9001
 50.2516  6909.98  82.9969
 50.4496  6914.86  82.6823
 50.6476  6959.42  82.628
 50.8456  6879.31  82.2453
 51.0436  6659.73  81.3555
 51.2416  6801.22  81.8864
 51.4396  6556.42  80.7926
 51.6376  6644.34  81.1605
 51.8356  6604.8  80.5483
 52.0336  6588.44  80.9559
 52.2316  6544.72  81.0361
 52.4296  6610.94  81.1333
 52.6276  6565.44  80.9703
 52.8256  6565.28  80.5223
 53.0236  6507.37  80.8147
 53.2216  6507.04  80.8242
 53.4196  6439.66  80.3504
 53.6176  6391.53  80.5268
 53.8156  6558.6  81.2412
 54.0136  6381.66  80.3095
 54.2116  6378.26  79.953
 54.4096  6416.83  80.2422
 54.6076  6316.5  79.9651
 54.8056  6261.35  79.4022
 55.0036  6249.49  79.5889
 55.2016  6281.5  79.3949
 55.3996  6312.05  79.6296
 55.5976  6226.16  79.2715
 55.7956  6303.88  79.5818
 55.9936  6302.11  79.7079
 56.1916  6281.43  79.5884
 56.3896  6236.23  79.2996
 56.5876  6121.54  79.1155
 56.7856  6129.4  78.653
 56.9836  6185.13  78.7906
 57.1816  6269.4  79.7048
 57.3796  6230.1  79.2567
 57.5776  6282.46  79.5067
 57.7756  6226.27  79.8036
 57.9736  6208.02  79.3535
 58.1716  6223.17  79.6889
 58.3696  6123.09  78.801
 58.5676  6267.55  79.1904
 58.7656  6329.57  80.2743
 58.9636  6318.2  80.2337
 59.1616  6271.92  80.0731
 59.3596  6217.26  78.9722
 59.5576  6224.21  79.0736
 59.7556  6269.18  79.7848
 59.9536  6325.89  80.0414
 60.1516  6049.71  79.1241
 60.1996  0.0000000E+00  0.0000000E+00

File: 17_Da_f00058.xye
# /beamlines/bl04/projects/cycle2025-II/20250340211-lsimonelli/DATA/IS17_D/17_Da_f00058.xye : mythproc.py merge -s 0.006 -l 0.5 -f /beamlines/bl04/inhouse/ff/FlatField/ff_20Nov2024rod8mm60s_17keV.raw -b True -c true -o xye /beamlines/bl04/projects/cycle2025-II/20250340211-lsimonelli/DATA/IS17_D/17_Da_00058.dat
# IsMon = [6779911, 6785650, 6785138]  IsPos = [-1.4999, -2.4884, -3.4988]
# Wave = 0.4962  CalPath /beamlines/bl04/projects/cycle2025-II/20250340211-lsimonelli/DATA/Align/Si_Pos1_25keV_f00001.cal
# Date = 2025-09-24_09:41:41 Dt = 4.8000  Bin = 0.0060  <imon> = 6783566 +/- 2593 (Min/Max) 6779911 / 6785650
# icurr 252.2077  mocoIn 1.7211E-05  mocoOut 0.8076  i15 7.10423e+06  imon 6.78357e+06  i7 6.0000  iEMpd_timer 4.8000  iEMpd_1 3.4295E-08  iEMpd_2 7.7337E-08  iEMpd_3 1.7239E-08  iEMpd_4 4.7764E-08  iEMhp_timer 4.8000  iEMhp_1 4.9275E-06  iEMhp_2 -2.5403E-08  iEMhp_3 -2.5648E-08  iEMhp_4 -2.2331E-08
#      9776
 1.7416  70946.5  266.506
 1.9396  46464.1  215.947
 2.1376  33009.9  182.018
 2.3356  29448.1  171.557
 2.5336  27421.7  166.132
 2.7316  25772.4  161.13
 2.9296  24441.5  157.086
 3.1276  24165.9  155.758
 3.3256  23862.8  154.421
 3.5236  25812.4  160.408
 3.7216  23688.7  154.915
 3.9196  23076.2  152.132
 4.1176  23000.1  151.654
 4.3156  24203.5  155.727
 4.5136  26695.7  162.52
 4.7116  27939.1  167.418
 4.9096  27135.6  164.425
 5.1076  26749.3  163.84
 5.3056  27129.6  164.713
 5.5036  26956.1  164.08
 5.7016  27248.1  164.94
 5.8996  27833.1  165.909
 6.0976  28729.2  170.02
 6.2956  29056.8  170.302
 6.4936  29824.4  171.729
 6.6916  30099.8  173.527
 6.8896  31077.2  176.182
 7.0876  32204.6  180.082
 7.2856  32128.2  178.917
 7.4836  32367.8  178.911
 7.6816  33276.5  181.944
 7.8796  34897.8  186.289
 8.0776  36378.8  191.199
 8.2756  38265.5  194.679
 8.4736  38761.1  195.745
 8.6716  38207.7  194.985
 8.8696  37959.9  194.865
 9.0676  37140.6  192.113
 9.2656  36154.3  190.237
 9.4636  35688.7  187.389
 9.6616  35150  186.759
 9.8596  33819.6  182.653
 10.0576  32118.8  178.663
 10.2556  30849  175.541
 10.4536  29859.6  172.31
 10.6516  29112.8  170.336
 10.8496  28185.3  167.012
 11.0476  27412.3  164.723
 11.2456  26787.8  163.364
 11.4436  27265  163.975
 11.6416  26902.5  163.251
 11.8396  25184.6  158.165
 12.0376  25095.1  157.501
 12.2356  24532.1  156.125
 12.4336  24606.4  155.916
 12.6316  24364.1  155.425
 12.8296  24665.6  156.006
 13.0276  25098  157.546
 13.2256  25212.1  158.278
 13.4236  24805.5  156.769
 13.6216  24751.7  156.619
 13.8196  24925.6  156.919
 14.0176  24499.6  155.863
 14.2156  23880.2  152.922
 14.4136  22928  151.231
 14.6116  22703.4  149.679
 14.8096  21884.2  146.942
 15.0076  20700.9  146.78
 15.2056  20294.8  141.087
 15.4036  19382.1  138.717
 15.6016  19222.1  137.214
 15.7996  18476.8  134.809
 15.9976  17726.6  135.028
 16.1956  17295.4  131.234
 16.3936  16852.3  128.713
 16.5916  16806.3  129.177
 16.7896  16562.6  128.296
 16.9876  16611.8  129.96
 17.1856  16269.1  126.958
 17.3836  15815.9  125.093
 17.5816  15338.1  123.674
 17.7796  15138  122.794
 17.9776  14990.8  122.986
 18.1756  15183.3  122.465
 18.3736  14842.9  121.596
 18.5716  14689.3  120.72
 18.7696  14648.5  120.119
 18.9676  14405.5  118.929
 19.1656  14282  118.979
 19.3636  14221.8  118.922
 19.5616  14089.7  118.538
 19.7596  14185.4  118.353
 19.9576  14859.4  121.182
 20.1556  14491.8  120.197
 20.3536  13928  117.215
 20.5516  13600  116.274
 20.7496  13523.4  115.888
 20.9476  13422.6  115.209
 21.1456  13503.7  115.878
 21.3436  13147.9  114.295
 21.5416  13183.5  114.45
 21.7396  12951.3  113.28
 21.9376  12990.4  113.219
 22.1356  12961  113.205
 22.3336  12893.9  113.206
 22.5316  12870  113.178
 22.7296  12864.8  112.519
 22.9276  12866.3  113.214
 23.1256  13088.3  113.656
 23.3236  12911  113.462
 23.5216  12729.6  112.322
 23.7196  12631.5  111.823
 23.9176  12576.3  111.339
 24.1156  12394.8  111.01
 24.3136  11991.4  109.983
 24.5116  12061.4  109.825
 24.7096  11781.5  108.359
 24.9076  11588.8  107.504
 25.1056  11315.2  106.685
 25.3036  11240.7  105.832
 25.5016  11257.4  105.946
 25.6996  11303.3  105.743
 25.8976  11101.4  105.233
 26.0956  11206.4  105.745
 26.2936  11113  104.944
 26.4916  11303.9  105.729
 26.6896  10922.8  104.224
 26.8876  10776  103.381
 27.0856  10866.9  103.856
 27.2836  10582  102.386
 27.4816  10455.9  101.702
 27.6796  10351.9  101.577
 27.8776  10436.1  101.853
 28.0756  10459.7  102.244
 28.2736  10286.5  100.979
 28.4716  10117.6  100.191
 28.6696  10077.7  99.8438
 28.8676  10018  99.8986
 29.0656  9893.95  99.2553
 29.2636  9970.53  99.4294
 29.4616  9831.83  98.9092
 29.6596  9851.57  98.5696
 29.8576  9596.01  97.9709
 30.0556  9757.58  98.6633
 30.2536  9879.5  99.0717
 30.4516  9652.55  97.5989
 30.6496  9668.61  97.4017
 30.8476  9575.97  97.3803
 31.0456  9462.51  96.769
 31.2436  9486.91  96.1557
 31.4416  9280.92  95.2791
 31.6396  9384.14  95.8542
 31.8376  9435.4  95.6589
 32.0356  9276.52  95.4174
 32.2336  9209.6  94.4638
 32.4316  9114.61  94.3677
 32.6296  9135.81  94.3138
 32.8276  9133.3  94.074
 33.0256  9039.92  93.6675
 33.2236  9031.97  93.7844
 33.4216  9127.97  93.9629
 33.6196  9089.19  94.053
 33.8176  9047.64  94.0076
 34.0156  8850.63  92.5866
 34.2136  8910.06  92.9498
 34.4116  8778.67  92.4073
 34.6096  8808.51  92.4472
 34.8076  8729.75  92.4492
 35.0056  8725.48  92.1037
 35.2036  8682.9  92.0955
 35.4016  8597.47  91.5564
 35.5996  8574.63  91.4738
 35.7976  8474.32  91.2093
 35.9956  8587.72  91.4613
 36.1936  8571.25  91.2427
 36.3916  8412.19  90.572
 36.5896  8391.27  91.4311
 36.7876  8328.23  90.4836
 36.9856  8464.36  91.2434
 37.1836  8330.07  89.6165
 37.3816  8371.94  90.2121
 37.5796  8240.7  91.2424
 37.7776  8142.15  89.0774
 37.9756  8163.54  89.0769
 38.1736  8352.14  90.2968
 38.3716  8275.47  90.158
 38.5696  8103.69  89.591
 38.7676  7897.08  87.9523
 38.9656  8057.69  88.4749
 39.1636  7975.75  88.296
 39.3616  7957.73  88.1151
 39.5596  7977.33  89.0735
 39.7576  7950.88  88.3025
 39.9556  7932.84  87.8397
 40.1536  8156.93  89.2764
 40.3516  8150.89  89.2519
 40.5496  8154.56  89.5351
 40.7476  8091.35  89.2011
 40.9456  8200.49  89.5419
 41.1436  8126.97  88.8614
 41.3416  8087.89  88.9781
 41.5396  8008.48  88.3499
 41.7376  8110.57  89.1768
 41.9356  7975.72  88.2948
 42.1336  8073.04  88.9815
 42.3316  7950.4  88.4975
 42.5296  7990.43  88.2359
 42.7276  7959.42  88.307
 42.9256  8030.65  88.5703
 43.1236  7771.21  87.2362
 43.3216  7942.43  87.9372
 43.5196  7753.75  86.9536
 43.7176  7794.92  87.5739
 43.9156  7621.61  86.4939
 44.1136  7684.12  86.4045
 44.3116  7731  86.6773
 44.5096  7678.69  86.6994
 44.7076  7685.58  86.6657
 44.9056  7644  86.317
 45.1036  7549.95  85.4091
 45.3016  7495.64  85.5972
 45.4996  7534.54  85.7628
 45.6976  7338.23  84.8083
 45.8956  7499.68  85.5531
 46.0936  7499.54  85.56
 46.2916  7409.5  85.0232
 46.4896  7517.72  85.676
 46.6876  7446.26  85.9832
 46.8856  7297.56  84.374
 47.0836  7289.88  84.5863
 47.2816  7173.53  83.7793
 47.4796  7267.26  84.4313
 47.6776  7085.01  84.3111
 47.8756  7235.57  84.3619
 48.0736  7198.01  84.6073
 48.2716  6950.48  82.9533
 48.4696  7123.18  83.5787
 48.6676  7138.95  84.2582
 48.8656  7149.22  84.0517
 49.0636  7080.61  83.5898
 49.2616  6905.7  82.5784
 49.4596  7014.57  82.7969
 49.6576  7024.72  83.0856
 49.8556  6917.67  82.4647
 50.0536  6870.55  82.6299
 50.2516  6984.81  83.4459
 50.4496  6884.66  82.4975
 50.6476  6825.23  81.8294
 50.8456  6849.58  82.057
 51.0436  6864.71  82.5873
 51.2416  6787.56  81.7956
 51.4396  6643.28  81.3189
 51.6376  6635.37  81.0948
 51.8356  6661.41  80.886
 52.0336  6508.36  80.4697
 52.2316  6500.56  80.7701
 52.4296  6637.47  81.2954
 52.6276  6538.16  80.8031
 52.8256  6576.55  80.6034
 53.0236  6525.81  80.9332
 53.2216  6395.91  80.1568
 53.4196  6321.78  79.6103
 53.6176  6470.24  81.0246
 53.8156  6482.48  80.7713
 54.0136  6491.12  80.9985
 54.2116  6461.45  80.4756
 54.4096  6277.4  79.3663
 54.6076  6388.16  80.4175
 54.8056  6259.28  79.3888
 55.0036  6320.33  80.1601
 55.2016  6381.57  80.1008
 55.3996  6296.16  79.5244
 55.5976  6223.4  79.2517
 55.7956  6314.02  79.6463
 55.9936  6329.64  79.8844
 56.1916  6338.25  79.9497
 56.3896  6340.42  79.9536
 56.5876  6236.86  79.8547
 56.7856  6185.17  78.9995
 56.9836  6130.62  78.4478
 57.1816  6278.78  79.7697
 57.3796  6235.34  79.2842
 57.5776  6275.18  79.4595
 57.7756  6151.09  79.3177
 57.9736  6218.77  79.4152
 58.1716  6265.73  79.9671
 58.3696  6207.09  79.3304
 58.5676  6226.12  78.9203
 58.7656  6160.89  79.1762
 58.9636  6270.08  79.9165
 59.1616  6134.05  79.1697
 59.3596  6382.03  80.0032
 59.5576  6370.25  79.9877
 59.7556  6300.41  79.9752
 59.9536  6428.26  80.6783
 60.1516  6120.94  79.5806
 60.1996  0.0000000E+00  0.0000000E+00