Folder: echemistpy/docs/examples/opeando_xrd/IS17_D/Data/IS17_D (part 68)

File: 17_Db_f00020.xye
# /beamlines/bl04/projects/cycle2025-II/20250340211-lsimonelli/DATA/IS17_D/17_Db_f00020.xye : mythproc.py merge -s 0.006 -l 0.5 -f /beamlines/bl04/inhouse/ff/FlatField/ff_20Nov2024rod8mm60s_17keV.raw -b True -c true -o xye /beamlines/bl04/projects/cycle2025-II/20250340211-lsimonelli/DATA/IS17_D/17_Db_00020.dat
# IsMon = [6732410, 6738334, 6763936]  IsPos = [-1.5000, -2.4885, -3.4986]
# Wave = 0.4962  CalPath /beamlines/bl04/projects/cycle2025-II/20250340211-lsimonelli/DATA/Align/Si_Pos1_25keV_f00001.cal
# Date = 2025-09-23_23:16:50 Dt = 4.8000  Bin = 0.0060  <imon> = 6744893 +/- 13681 (Min/Max) 6732410 / 6763936
# icurr 249.1184  mocoIn 1.7006E-05  mocoOut 0.7977  i15 7.06202e+06  imon 6.74489e+06  i7 4.0000  iEMpd_timer 4.8000  iEMpd_1 3.5469E-08  iEMpd_2 7.8328E-08  iEMpd_3 1.7604E-08  iEMpd_4 4.7293E-08  iEMhp_timer 4.8000  iEMhp_1 4.8762E-06  iEMhp_2 -2.4875E-08  iEMhp_3 -2.3606E-08  iEMhp_4 -2.0231E-08
#      9776
 1.7416  68233.2  261.532
 1.9396  46880.7  217.065
 2.1376  34070.6  185.041
 2.3356  30386.4  174.383
 2.5336  29965.5  173.781
 2.7316  26151  162.421
 2.9296  24704.2  158.025
 3.1276  24127.4  155.724
 3.3256  23400.7  153.007
 3.5236  25257.3  158.912
 3.7216  23009.8  152.665
 3.9196  22776.1  151.118
 4.1176  22660.9  150.553
 4.3156  23467.9  153.294
 4.5136  26234.4  161.135
 4.7116  27070  164.793
 4.9096  26129.8  161.34
 5.1076  25868.6  161.143
 5.3056  26235.7  161.859
 5.5036  25428.3  159.33
 5.7016  26091.4  161.399
 5.8996  26468.4  161.806
 6.0976  27361.5  165.939
 6.2956  27426.9  165.433
 6.4936  28382.3  167.519
 6.6916  28314.8  168.29
 6.8896  29394.4  171.319
 7.0876  30555.5  175.36
 7.2856  30079.3  173.108
 7.4836  30490  173.64
 7.6816  31109.7  175.895
 7.8796  31998.3  178.319
 8.0776  35007.7  187.501
 8.2756  35641.6  187.769
 8.4736  35844.4  188.175
 8.6716  34898.6  186.344
 8.8696  36172.1  190.191
 9.0676  35312  187.258
 9.2656  33605.8  183.358
 9.4636  32567.9  178.934
 9.6616  31997.7  178.071
 9.8596  31291.3  175.783
 10.0576  29367  170.92
 10.2556  28704.3  169.441
 10.4536  30504.9  174.261
 10.6516  31472.8  177.229
 10.8496  26084.5  160.652
 11.0476  25457.6  158.709
 11.2456  27039  164.158
 11.4436  25148.1  157.485
 11.6416  24759.4  156.588
 11.8396  23563  152.992
 12.0376  22903.1  150.421
 12.2356  23800.8  153.824
 12.4336  23339.9  151.847
 12.6316  22485.6  149.328
 12.8296  22804.8  149.981
 13.0276  22947.5  150.626
 13.2256  23258.8  152.026
 13.4236  23082.4  151.222
 13.6216  23572.6  152.848
 13.8196  26017.4  160
 14.0176  22567.6  149.571
 14.2156  22365  147.975
 14.4136  21012.5  144.779
 14.6116  20748.3  143.087
 14.8096  19968.9  140.305
 15.0076  19316.7  141.881
 15.2056  18394.6  134.275
 15.4036  17322.9  131.106
 15.6016  17135.7  129.511
 15.7996  16827.6  128.565
 15.9976  16496.7  130.173
 16.1956  16206.8  126.96
 16.3936  15919.3  125.041
 16.5916  15770.2  125.085
 16.7896  15616.6  124.536
 16.9876  15526.9  125.665
 17.1856  15237.4  122.945
 17.3836  14831.9  121.221
 17.5816  14399.9  119.902
 17.7796  14466  120.112
 17.9776  14433.3  120.649
 18.1756  14966.3  121.603
 18.3736  15059.9  122.488
 18.5716  13762.3  116.846
 18.7696  13866.7  116.856
 18.9676  13525.8  115.24
 19.1656  13236.9  114.511
 19.3636  13161.4  114.425
 19.5616  13221.1  114.836
 19.7596  13434.7  115.192
 19.9576  13788.8  116.725
 20.1556  13260  114.95
 20.3536  12825.1  112.48
 20.5516  12537.8  111.639
 20.7496  12498.1  111.341
 20.9476  12761.4  112.353
 21.1456  12694.9  112.331
 21.3436  12260.8  110.375
 21.5416  12143.6  109.855
 21.7396  12070.4  109.368
 21.9376  12013.7  108.893
 22.1356  12380.6  110.689
 22.3336  11954.5  108.951
 22.5316  11898.6  108.805
 22.7296  11908.8  108.233
 22.9276  11644.9  107.669
 23.1256  12177.6  109.562
 23.3236  12185.5  110.215
 23.5216  12069.7  109.328
 23.7196  11959.8  109.042
 23.9176  11956.7  108.576
 24.1156  11764.4  108.101
 24.3136  11698.7  108.695
 24.5116  11510.4  107.338
 24.7096  11281.4  106.091
 24.9076  11062.8  105.103
 25.1056  10890.6  104.454
 25.3036  10601.4  102.792
 25.5016  10628.5  102.945
 25.6996  10666.8  102.714
 25.8976  10735.2  103.499
 26.0956  10526.8  102.448
 26.2936  10420.7  101.641
 26.4916  10626.2  102.486
 26.6896  10352.5  101.46
 26.8876  10275.2  100.957
 27.0856  10128.4  100.245
 27.2836  9922.06  99.2618
 27.4816  9993.94  99.4352
 27.6796  9810.63  98.8794
 27.8776  10203  100.72
 28.0756  9739.16  98.6418
 28.2736  9672.68  97.9177
 28.4716  9509.78  97.1428
 28.6696  9626.51  97.5788
 28.8676  9373.54  96.6308
 29.0656  9246.97  95.9543
 29.2636  9277.81  95.857
 29.4616  9097.28  95.1123
 29.6596  9100.43  94.7073
 29.8576  8847.82  94.0425
 30.0556  9081.84  95.1285
 30.2536  9076.54  94.9255
 30.4516  9126.62  94.8694
 30.6496  9012.82  94.0096
 30.8476  9032.66  94.5407
 31.0456  9069.24  94.7358
 31.2436  9112.09  94.2353
 31.4416  8835.67  93.0251
 31.6396  9173.89  94.8326
 31.8376  8939.78  93.1478
 32.0356  8944.09  93.724
 32.2336  8906.8  92.9571
 32.4316  8579.29  91.5647
 32.6296  8558.43  91.2167
 32.8276  8626.85  91.4422
 33.0256  8509.38  90.8684
 33.2236  8570.64  91.3635
 33.4216  8515.49  90.7103
 33.6196  8430.2  90.586
 33.8176  8487.59  91.0433
 34.0156  8343.34  89.9019
 34.2136  8397.03  90.2386
 34.4116  8261.78  89.6338
 34.6096  8270.43  89.5803
 34.8076  8138.17  89.2666
 35.0056  8128.1  88.8906
 35.2036  8432.01  90.7801
 35.4016  8144.86  89.095
 35.5996  8081.38  88.7984
 35.7976  8032.6  88.7927
 35.9956  8223.68  89.4995
 36.1936  8198.21  89.219
 36.3916  7914.82  87.8514
 36.5896  8105.01  90.3599
 36.7876  7816.74  87.6305
 36.9856  7689.48  86.9401
 37.1836  7768.95  86.5162
 37.3816  7700.14  86.4602
 37.5796  7732.68  88.3925
 37.7776  7801.6  87.1954
 37.9756  7817.32  87.1718
 38.1736  7848.33  87.4952
 38.3716  7931.63  88.2274
 38.5696  7708.64  87.3607
 38.7676  7496.12  85.7458
 38.9656  7698.56  86.5192
 39.1636  7562.24  86.0009
 39.3616  7718.69  86.8357
 39.5596  7512.07  86.432
 39.7576  7650.94  86.6254
 39.9556  7632.85  86.1645
 40.1536  7788.1  87.2215
 40.3516  7562.37  86.0306
 40.5496  7683.27  86.7004
 40.7476  7654.86  86.7432
 40.9456  7679.62  86.6524
 41.1436  7799.86  87.0706
 41.3416  7548.8  85.9507
 41.5396  7513.58  85.5771
 41.7376  7610.27  86.3793
 41.9356  7522.52  85.7442
 42.1336  7775.58  87.3301
 42.3316  7447.51  85.6408
 42.5296  7591.85  86.0023
 42.7276  7650.83  86.5744
 42.9256  7482.06  85.4885
 43.1236  7388.08  85.0545
 43.3216  7519.62  85.6568
 43.5196  7467.98  85.3453
 43.7176  7480.27  85.7831
 43.9156  7204.18  84.0724
 44.1136  7216.17  83.7052
 44.3116  7321.15  84.2996
 44.5096  7335.02  84.71
 44.7076  7176.73  83.7202
 44.9056  7415.66  84.9913
 45.1036  7396.16  84.5083
 45.3016  7243.2  84.1203
 45.4996  7323.72  84.5251
 45.6976  7214.44  84.0372
 45.8956  7289.55  84.3949
 46.0936  7228.39  83.8104
 46.2916  7335.31  84.6492
 46.4896  7298.26  84.4718
 46.6876  7206.38  84.6329
 46.8856  7106.62  83.3534
 47.0836  7262.21  84.4393
 47.2816  7045.3  83.0402
 47.4796  7083.92  83.3617
 47.6776  7048.95  84.0962
 47.8756  7059.65  83.3426
 48.0736  7082.61  83.9189
 48.2716  7056.13  83.5685
 48.4696  7217.63  84.1263
 48.6676  7069.43  83.8411
 48.8656  7138.78  83.9817
 49.0636  7225.27  84.4572
 49.2616  6941.65  82.7837
 49.4596  7069.92  83.1254
 49.6576  7004.56  82.9642
 49.8556  6943.57  82.6201
 50.0536  7026.52  83.5549
 50.2516  6995.53  83.4876
 50.4496  6971.04  83.0253
 50.6476  6966.26  82.6698
 50.8456  6973.56  82.7952
 51.0436  6687.79  81.4878
 51.2416  6702.32  81.2285
 51.4396  6690.39  81.5797
 51.6376  6741.63  81.7429
 51.8356  6843.38  81.974
 52.0336  6750.12  81.9207
 52.2316  6647.52  81.6497
 52.4296  6652.34  81.3515
 52.6276  6613.43  81.2193
 52.8256  6678.5  81.2092
 53.0236  6738.61  82.2919
 53.2216  6708.48  82.1167
 53.4196  6667  81.7967
 53.6176  6718.68  82.6172
 53.8156  6582.4  81.4447
 54.0136  6372.75  80.2188
 54.2116  6482.75  80.5934
 54.4096  6351.06  79.8342
 54.6076  6275.44  79.6764
 54.8056  6214.75  79.0814
 55.0036  6342.33  80.1808
 55.2016  6274.49  79.3099
 55.3996  6136.97  78.4869
 55.5976  6306.8  79.7695
 55.7956  6267.4  79.3341
 55.9936  6318.68  79.7976
 56.1916  6293.42  79.6607
 56.3896  5965.82  77.5183
 56.5876  6068.86  78.7294
 56.7856  6114.84  78.5576
 56.9836  6136.96  78.4853
 57.1816  6165.88  79.0324
 57.3796  5963.8  77.4836
 57.5776  6100.16  78.3037
 57.7756  5980.89  78.1902
 57.9736  5961.25  77.7394
 58.1716  5894.69  77.5343
 58.3696  5752.37  76.3717
 58.5676  5801.1  76.1772
 58.7656  5658.95  75.8674
 58.9636  5793.25  76.7887
 59.1616  5747.54  76.6148
 59.3596  5771.75  75.9787
 59.5576  5786  76.1329
 59.7556  5658.56  75.6941
 59.9536  5704.71  75.904
 60.1516  5700.43  76.699
 60.1996  0.0000000E+00  0.0000000E+00

File: 17_Db_f00022.xye
# /beamlines/bl04/projects/cycle2025-II/20250340211-lsimonelli/DATA/IS17_D/17_Db_f00022.xye : mythproc.py merge -s 0.006 -l 0.5 -f /beamlines/bl04/inhouse/ff/FlatField/ff_20Nov2024rod8mm60s_17keV.raw -b True -c true -o xye /beamlines/bl04/projects/cycle2025-II/20250340211-lsimonelli/DATA/IS17_D/17_Db_00022.dat
# IsMon = [6750005, 6755159, 6751649]  IsPos = [-1.5000, -2.4885, -3.4986]
# Wave = 0.4962  CalPath /beamlines/bl04/projects/cycle2025-II/20250340211-lsimonelli/DATA/Align/Si_Pos1_25keV_f00001.cal
# Date = 2025-09-23_23:49:56 Dt = 4.8000  Bin = 0.0060  <imon> = 6752271 +/- 2150 (Min/Max) 6750005 / 6755159
# icurr 250.2201  mocoIn 1.7068E-05  mocoOut 0.8011  i15 7.07069e+06  imon 6.75227e+06  i7 4.6667  iEMpd_timer 4.8000  iEMpd_1 3.5677E-08  iEMpd_2 7.6829E-08  iEMpd_3 1.7098E-08  iEMpd_4 4.8064E-08  iEMhp_timer 4.8000  iEMhp_1 4.8884E-06  iEMhp_2 -2.4775E-08  iEMhp_3 -2.3732E-08  iEMhp_4 -2.1652E-08
#      9776
 1.7416  69285.5  263.341
 1.9396  47588.3  218.525
 2.1376  34417.1  185.839
 2.3356  30847.1  175.567
 2.5336  29400  172.002
 2.7316  26217.6  162.511
 2.9296  25206.1  159.494
 3.1276  24530.5  156.895
 3.3256  23725.4  153.961
 3.5236  25667.2  160.086
 3.7216  23365.2  153.839
 3.9196  22722.2  150.93
 4.1176  22747.5  150.813
 4.3156  23738.4  154.225
 4.5136  26347  161.451
 4.7116  27238.5  165.296
 4.9096  26403.5  162.185
 5.1076  26133.3  161.929
 5.3056  26628.9  163.061
 5.5036  25954.7  161.025
 5.7016  26354  162.204
 5.8996  26716.6  162.561
 6.0976  27746.5  167.066
 6.2956  27795.6  166.562
 6.4936  28520  167.929
 6.6916  28896.9  170.002
 6.8896  29701.9  172.215
 7.0876  30716.1  175.78
 7.2856  30263.3  173.629
 7.4836  30798.6  174.514
 7.6816  31456.9  176.88
 7.8796  32078.3  178.614
 8.0776  34400.4  185.938
 8.2756  35410.7  187.292
 8.4736  35823.2  188.19
 8.6716  35153.9  187.028
 8.8696  36092.1  190.044
 9.0676  35173.1  186.941
 9.2656  34096  184.743
 9.4636  32844.6  179.818
 9.6616  32041.9  178.317
 9.8596  31711.6  176.833
 10.0576  29625.7  171.555
 10.2556  28927  169.971
 10.4536  29595.8  171.531
 10.6516  29891.9  172.588
 10.8496  26393.4  161.615
 11.0476  25711.6  159.468
 11.2456  26524.2  162.558
 11.4436  25191  157.613
 11.6416  24820.8  156.785
 11.8396  23778.8  153.665
 12.0376  23152.6  151.258
 12.2356  23429.7  152.618
 12.4336  23200.2  151.391
 12.6316  22780  150.273
 12.8296  23014.7  150.658
 13.0276  23100  151.147
 13.2256  23134.8  151.616
 13.4236  23241.9  151.745
 13.6216  23556.7  152.776
 13.8196  26061.3  160.127
 14.0176  22557.7  149.56
 14.2156  22329.5  147.856
 14.4136  21280.7  145.696
 14.6116  20987.5  143.893
 14.8096  20221  141.236
 15.0076  19395  142.13
 15.2056  18338.8  134.119
 15.4036  17509.5  131.858
 15.6016  17367.3  130.433
 15.7996  16969.7  129.204
 15.9976  16575.6  130.534
 16.1956  16146.2  126.753
 16.3936  16076  125.697
 16.5916  15755.5  125.067
 16.7896  15609.4  124.547
 16.9876  15399.1  125.107
 17.1856  15274.1  123.005
 17.3836  14900.7  121.413
 17.5816  14606.6  120.671
 17.7796  14597.3  120.572
 17.9776  14271.5  119.997
 18.1756  14686  120.462
 18.3736  14635.8  120.726
 18.5716  13847.8  117.207
 18.7696  13980.8  117.338
 18.9676  13729.7  116.082
 19.1656  13309.8  114.868
 19.3636  13309.2  115.043
 19.5616  13172.1  114.612
 19.7596  13574.6  115.774
 19.9576  13857.7  117.009
 20.1556  13363.9  115.412
 20.3536  12924.2  112.912
 20.5516  12683.4  112.282
 20.7496  12538.7  111.504
 20.9476  12703.6  112.075
 21.1456  12581.2  111.846
 21.3436  12357.3  110.802
 21.5416  12335.4  110.719
 21.7396  12232.4  110.1
 21.9376  12109.6  109.326
 22.1356  12224.2  109.987
 22.3336  12021  109.295
 22.5316  11904.1  108.866
 22.7296  11791  107.741
 22.9276  11598  107.494
 23.1256  12118.9  109.38
 23.3236  12137.7  110.035
 23.5216  11981.1  108.949
 23.7196  12016.7  109.296
 23.9176  12012.1  108.819
 24.1156  11779.4  108.207
 24.3136  11583.1  108.082
 24.5116  11559.9  107.5
 24.7096  11270.3  105.965
 24.9076  11172  105.544
 25.1056  10876.9  104.306
 25.3036  10503.3  102.299
 25.5016  10773.6  103.648
 25.6996  10568.3  102.246
 25.8976  10696.5  103.298
 26.0956  10471  102.207
 26.2936  10473.3  101.877
 26.4916  10750.1  103.087
 26.6896  10356  101.474
 26.8876  10201.1  100.572
 27.0856  10148.5  100.325
 27.2836  9949.38  99.4249
 27.4816  9934.22  99.139
 27.6796  9815.58  98.8973
 27.8776  10136.7  100.365
 28.0756  9723.33  98.5735
 28.2736  9747.84  98.2887
 28.4716  9570.88  97.448
 28.6696  9468.4  96.7692
 28.8676  9425.38  96.9026
 29.0656  9371.94  96.6023
 29.2636  9497.1  96.9607
 29.4616  8996.08  94.6172
 29.6596  9031.7  94.3844
 29.8576  8911.92  94.4125
 30.0556  8975.51  94.6309
 30.2536  9074.27  94.9524
 30.4516  9121.41  94.8655
 30.6496  9233.06  95.1786
 30.8476  9090.55  94.8664
 31.0456  9172.98  95.2648
 31.2436  9200.43  94.6836
 31.4416  8952.36  93.5605
 31.6396  9145.19  94.6128
 31.8376  9104.79  93.9333
 32.0356  8880.5  93.3353
 32.2336  8806.41  92.3603
 32.4316  8656.17  91.9575
 32.6296  8676.91  91.8504
 32.8276  8544.37  91.0025
 33.0256  8505.06  90.8535
 33.2236  8511.54  91.0343
 33.4216  8562.21  90.9925
 33.6196  8460.46  90.7257
 33.8176  8414.99  90.6524
 34.0156  8376.27  90.0847
 34.2136  8408.79  90.2849
 34.4116  8238.82  89.5239
 34.6096  8249.26  89.4632
 34.8076  8095.34  89.0308
 35.0056  8281.44  89.7231
 35.2036  8421.83  90.7069
 35.4016  8074.45  88.7268
 35.5996  8035.66  88.5475
 35.7976  8030.63  88.7832
 35.9956  8226.68  89.5194
 36.1936  8147.02  88.9306
 36.3916  7921.31  87.8881
 36.5896  8063.77  90.1124
 36.7876  7744.61  87.2597
 36.9856  7627.27  86.6133
 37.1836  7606.61  85.6399
 37.3816  7737.39  86.7333
 37.5796  7786.47  88.6931
 37.7776  7899.7  87.7371
 37.9756  7858.51  87.3948
 38.1736  7806.6  87.2973
 38.3716  7768.13  87.3413
 38.5696  7585.04  86.6626
 38.7676  7634.06  86.4674
 38.9656  7608.53  85.9512
 39.1636  7681.57  86.6098
 39.3616  7794.24  87.199
 39.5596  7521.17  86.4856
 39.7576  7530.3  85.9395
 39.9556  7577.19  85.8524
 40.1536  7733.14  86.926
 40.3516  7621.34  86.3784
 40.5496  7671.59  86.6347
 40.7476  7664.08  86.7914
 40.9456  7708.1  86.8136
 41.1436  7753.96  86.7974
 41.3416  7602.4  86.2694
 41.5396  7620.4  86.1725
 41.7376  7583.51  86.2253
 41.9356  7615.76  86.2624
 42.1336  7779.69  87.3325
 42.3316  7422.68  85.5058
 42.5296  7529.27  85.6488
 42.7276  7603.49  86.2966
 42.9256  7672.11  86.56
 43.1236  7513.94  85.7656
 43.3216  7592.53  86.0719
 43.5196  7501.98  85.5218
 43.7176  7444.16  85.5748
 43.9156  7193.33  84.0371
 44.1136  7187.44  83.5692
 44.3116  7301.88  84.2494
 44.5096  7178.59  83.8323
 44.7076  7194.9  83.8578
 44.9056  7397.62  84.917
 45.1036  7421.64  84.681
 45.3016  7208.18  83.9391
 45.4996  7239.92  84.0698
 45.6976  7173.23  83.8537
 45.8956  7262.19  84.1774
 46.0936  7404.12  84.7601
 46.2916  7392.74  84.9173
 46.4896  7368.94  84.8054
 46.6876  7272.86  84.9656
 46.8856  7127.85  83.4919
 47.0836  7048.94  83.1634
 47.2816  7065.42  83.1453
 47.4796  7166.87  83.8567
 47.6776  7018.96  83.9217
 47.8756  7109.18  83.6341
 48.0736  7196.15  84.5803
 48.2716  6985.2  83.1631
 48.4696  7178.75  83.8962
 48.6676  7099.28  84.0132
 48.8656  7182.94  84.2454
 49.0636  7167.9  84.103
 49.2616  7059.31  83.4999
 49.4596  7131.06  83.4745
 49.6576  7055  83.256
 49.8556  7102.45  83.5599
 50.0536  6944.48  83.068
 50.2516  7090.66  84.051
 50.4496  6985.78  83.0955
 50.6476  7123.96  83.5993
 50.8456  7050.8  83.2452
 51.0436  6840.95  82.4483
 51.2416  6812.78  81.9539
 51.4396  6620.77  81.1859
 51.6376  6839.15  82.3307
 51.8356  6774.09  81.5609
 52.0336  6699.44  81.6373
 52.2316  6683.27  81.8918
 52.4296  6680.64  81.582
 52.6276  6729.93  81.9846
 52.8256  6842.47  82.23
 53.0236  6797.42  82.5831
 53.2216  6727.96  82.1735
 53.4196  6666.7  81.736
 53.6176  6689.77  82.3759
 53.8156  6734.34  82.317
 54.0136  6428.03  80.6012
 54.2116  6510.06  80.7372
 54.4096  6359.39  79.8722
 54.6076  6342.67  80.1034
 54.8056  6301.74  79.6328
 55.0036  6438.49  80.7519
 55.2016  6318.51  79.5781
 55.3996  6123.37  78.4036
 55.5976  6200.56  79.1018
 55.7956  6197.84  78.8947
 55.9936  6267.82  79.4559
 56.1916  6289.05  79.6259
 56.3896  6026.54  77.9278
 56.5876  5981.08  78.1677
 56.7856  6118.27  78.5733
 56.9836  6177.4  78.7295
 57.1816  6268.78  79.6541
 57.3796  5985.04  77.6345
 57.5776  6068.7  78.0772
 57.7756  5888.17  77.5728
 57.9736  5952.44  77.6739
 58.1716  5909.99  77.6542
 58.3696  5697.29  76.0064
 58.5676  5791.33  76.1126
 58.7656  5670.51  75.973
 58.9636  5623.03  75.6835
 59.1616  5731.7  76.5382
 59.3596  5859.67  76.6719
 59.5576  5793.91  76.296
 59.7556  5685.9  75.9873
 59.9536  5760.84  76.3877
 60.1516  5732.51  77.0266
 60.1996  0.0000000E+00  0.0000000E+00