Folder: echemistpy/docs/examples/opeando_xrd/IS17_D/Data/IS17_D (part 27)

File: 17_Da_f00072.xye
# /beamlines/bl04/projects/cycle2025-II/20250340211-lsimonelli/DATA/IS17_D/17_Da_f00072.xye : mythproc.py merge -s 0.006 -l 0.5 -f /beamlines/bl04/inhouse/ff/FlatField/ff_20Nov2024rod8mm60s_17keV.raw -b True -c true -o xye /beamlines/bl04/projects/cycle2025-II/20250340211-lsimonelli/DATA/IS17_D/17_Da_00072.dat
# IsMon = [6745327, 6746941, 6750459]  IsPos = [-1.4999, -2.4884, -3.4988]
# Wave = 0.4962  CalPath /beamlines/bl04/projects/cycle2025-II/20250340211-lsimonelli/DATA/Align/Si_Pos1_25keV_f00001.cal
# Date = 2025-09-24_13:36:05 Dt = 4.8000  Bin = 0.0060  <imon> = 6747576 +/- 2143 (Min/Max) 6745327 / 6750459
# icurr 248.8374  mocoIn 1.6970E-05  mocoOut 0.7965  i15 7.06433e+06  imon 6.74758e+06  i7 4.3333  iEMpd_timer 4.8000  iEMpd_1 3.2439E-08  iEMpd_2 7.8874E-08  iEMpd_3 1.6089E-08  iEMpd_4 4.7524E-08  iEMhp_timer 4.8000  iEMhp_1 4.8613E-06  iEMhp_2 -2.5376E-08  iEMhp_3 -2.5193E-08  iEMhp_4 -2.1249E-08
#      9776
 1.7416  68473.5  261.793
 1.9396  44532.3  211.386
 2.1376  31401.5  177.509
 2.3356  28267.4  168.065
 2.5336  27550.3  166.504
 2.7316  24502.5  157.123
 2.9296  23474  153.953
 3.1276  22836.5  151.407
 3.3256  22559.2  150.16
 3.5236  24293.7  155.635
 3.7216  22410  150.676
 3.9196  22240  149.346
 4.1176  21586.8  146.92
 4.3156  23167.7  152.353
 4.5136  26012.4  160.435
 4.7116  26605.3  163.371
 4.9096  25959.3  160.82
 5.1076  25362.9  159.533
 5.3056  25831.1  160.719
 5.5036  25521.1  159.659
 5.7016  26019.2  161.178
 5.8996  26668.1  162.399
 6.0976  27339.3  165.854
 6.2956  27761.5  166.467
 6.4936  28278.5  167.219
 6.6916  28890.6  170.005
 6.8896  30005.3  173.113
 7.0876  30738.9  175.936
 7.2856  30726.8  174.965
 7.4836  31441  176.331
 7.6816  31997.9  178.413
 7.8796  33791.3  183.328
 8.0776  37566.9  194.304
 8.2756  37775.6  193.432
 8.4736  37682.7  193.01
 8.6716  36937.4  191.733
 8.8696  37834.9  194.524
 9.0676  36922.3  191.528
 9.2656  35206.9  187.709
 9.4636  34717.1  184.814
 9.6616  33835.6  183.213
 9.8596  32605.7  179.354
 10.0576  30910.6  175.286
 10.2556  29674.9  172.181
 10.4536  32781  180.551
 10.6516  34282.2  184.862
 10.8496  27490  164.923
 11.0476  27503.1  164.997
 11.2456  29601.2  171.742
 11.4436  26791.5  162.549
 11.6416  25931.1  160.275
 11.8396  24702.8  156.637
 12.0376  24227.9  154.755
 12.2356  25798.9  160.118
 12.4336  24728.3  156.302
 12.6316  23507.7  152.661
 12.8296  24383.2  155.112
 13.0276  24584.5  155.926
 13.2256  24150.5  154.909
 13.4236  24209.3  154.868
 13.6216  24162.6  154.741
 13.8196  24921.9  156.915
 14.0176  23829.9  153.72
 14.2156  23354.9  151.226
 14.4136  21973.3  148.049
 14.6116  21698.8  146.336
 14.8096  21112.6  144.324
 15.0076  20237.9  145.123
 15.2056  19529.3  138.41
 15.4036  18616.4  135.953
 15.6016  18374.8  134.16
 15.7996  18068.1  133.312
 15.9976  17135.1  132.75
 16.1956  16710.3  128.981
 16.3936  16177  126.095
 16.5916  16315.9  127.263
 16.7896  16344.7  127.437
 16.9876  16111.8  127.992
 17.1856  15893.7  125.5
 17.3836  15125.3  122.332
 17.5816  14941.4  122.072
 17.7796  14884.1  121.767
 17.9776  15256.3  124.067
 18.1756  16047.9  125.904
 18.3736  16003.2  126.257
 18.5716  14603.9  120.367
 18.7696  14654.1  120.134
 18.9676  14117.9  117.733
 19.1656  14061.6  118.051
 19.3636  13853.5  117.377
 19.5616  13990.9  118.123
 19.7596  14012.4  117.629
 19.9576  14416  119.356
 20.1556  13621.6  116.534
 20.3536  13506.9  115.425
 20.5516  13262.5  114.824
 20.7496  13040.2  113.797
 20.9476  13244.2  114.439
 21.1456  13588.7  116.247
 21.3436  12860.2  113.041
 21.5416  12865.9  113.06
 21.7396  12532.5  111.436
 21.9376  12870.2  112.69
 22.1356  12953.9  113.192
 22.3336  12806.9  112.834
 22.5316  12609.3  112.044
 22.7296  12563.1  111.195
 22.9276  12460.7  111.418
 23.1256  12996.8  113.252
 23.3236  12554.5  111.872
 23.5216  12529.7  111.422
 23.7196  12316.8  110.415
 23.9176  12293.2  110.076
 24.1156  12126.5  109.792
 24.3136  11836.3  109.266
 24.5116  11851.1  108.869
 24.7096  11656.4  107.789
 24.9076  11467.7  106.937
 25.1056  11231.5  106.293
 25.3036  11088.6  105.119
 25.5016  11151.9  105.436
 25.6996  11095.5  104.763
 25.8976  11340.1  106.358
 26.0956  11115.4  105.313
 26.2936  11085.1  104.82
 26.4916  10912.9  103.878
 26.6896  10744.9  103.376
 26.8876  10553.3  102.306
 27.0856  10654.7  102.831
 27.2836  10359.9  101.297
 27.4816  10355  101.218
 27.6796  10336.2  101.501
 27.8776  10434.8  101.839
 28.0756  10208.8  101.015
 28.2736  10135.8  100.238
 28.4716  10013.5  99.681
 28.6696  10042.9  99.6707
 28.8676  9820.6  98.9091
 29.0656  9699.35  98.272
 29.2636  9646.04  97.8045
 29.4616  9608.31  97.7826
 29.6596  9576.46  97.1895
 29.8576  9510.82  97.5382
 30.0556  9542.32  97.5678
 30.2536  9642.36  97.8812
 30.4516  9622.16  97.429
 30.6496  9603.32  97.0662
 30.8476  9525.72  97.1152
 31.0456  9424.02  96.5593
 31.2436  9241.18  94.8892
 31.4416  9160.4  94.6588
 31.6396  9619.05  97.0492
 31.8376  9289.81  94.9199
 32.0356  9202.88  95.043
 32.2336  9097.9  93.8893
 32.4316  9030.22  93.934
 32.6296  9062.63  93.9406
 32.8276  8987.24  93.3139
 33.0256  8882.74  92.8544
 33.2236  8906.36  93.1249
 33.4216  8912.28  92.843
 33.6196  8891.11  93.0295
 33.8176  8814.1  92.7777
 34.0156  8682.48  91.7112
 34.2136  8657.84  91.6222
 34.4116  8636.76  91.6598
 34.6096  8597.78  91.3316
 34.8076  8548.96  91.4732
 35.0056  8586.69  91.372
 35.2036  8531.52  91.2868
 35.4016  8478.28  90.918
 35.5996  8404.51  90.5623
 35.7976  8350.45  90.5374
 35.9956  8582.67  91.4406
 36.1936  8414.77  90.4047
 36.3916  8298.26  89.9541
 36.5896  8367.27  91.2996
 36.7876  8201.25  89.7964
 36.9856  8196.66  89.7991
 37.1836  8198.86  88.9129
 37.3816  8249.52  89.5483
 37.5796  8163.21  90.8023
 37.7776  8001.46  88.2945
 37.9756  8070.01  88.5524
 38.1736  8114.07  88.9888
 38.3716  8089.02  89.1276
 38.5696  7984.97  88.9249
 38.7676  7732.37  87.033
 38.9656  7873.68  87.4629
 39.1636  7747.22  87.0198
 39.3616  7943.65  88.0365
 39.5596  7788.08  88.0178
 39.7576  7883.29  87.924
 39.9556  7935.39  87.8574
 40.1536  8019.15  88.5209
 40.3516  8039.82  88.6446
 40.5496  7974.49  88.5413
 40.7476  8076.31  89.111
 40.9456  7992.99  88.3993
 41.1436  8039.42  88.3821
 41.3416  7934.98  88.1313
 41.5396  7895.15  87.7235
 41.7376  7978.82  88.4514
 41.9356  7896.79  87.8558
 42.1336  7868.36  87.8469
 42.3316  7843.72  87.9019
 42.5296  7820.23  87.2846
 42.7276  7839.21  87.6342
 42.9256  7761.32  87.0735
 43.1236  7734.04  87.0268
 43.3216  7788.08  87.0776
 43.5196  7704.88  86.6786
 43.7176  7737.65  87.2529
 43.9156  7519.6  85.9169
 44.1136  7461.18  85.1462
 44.3116  7602.29  85.958
 44.5096  7493.66  85.6527
 44.7076  7375.61  84.9058
 44.9056  7485.75  85.4096
 45.1036  7304.53  83.9952
 45.3016  7420.34  85.1634
 45.4996  7399.26  84.9803
 45.6976  7220.83  84.1192
 45.8956  7352.34  84.7134
 46.0936  7398.47  84.9851
 46.2916  7318.49  84.5038
 46.4896  7363.71  84.7971
 46.6876  7326.04  85.2921
 46.8856  7159.51  83.5636
 47.0836  7118.6  83.5801
 47.2816  7102.48  83.364
 47.4796  7098.59  83.4524
 47.6776  7000.66  83.7953
 47.8756  7081.93  83.4618
 48.0736  7070.68  83.8527
 48.2716  6906.75  82.6912
 48.4696  6996.99  82.836
 48.6676  7004.84  83.4635
 48.8656  6915.61  82.6501
 49.0636  7021.59  83.2378
 49.2616  6873.52  82.3893
 49.4596  6882.71  82.0106
 49.6576  6860.71  82.1107
 49.8556  6848.88  82.0553
 50.0536  6782.34  82.0993
 50.2516  6778.15  82.2054
 50.4496  6674.81  81.2354
 50.6476  6764.98  81.4691
 50.8456  6749.92  81.4675
 51.0436  6610.85  81.047
 51.2416  6699.86  81.2638
 51.4396  6440.9  80.0709
 51.6376  6540.64  80.5206
 51.8356  6568.22  80.3257
 52.0336  6539.25  80.6523
 52.2316  6493.25  80.7148
 52.4296  6410.55  79.8886
 52.6276  6505.11  80.5906
 52.8256  6551.82  80.4453
 53.0236  6417.64  80.2639
 53.2216  6335.93  79.7794
 53.4196  6226.96  79.02
 53.6176  6278.19  79.8177
 53.8156  6205.16  79.0263
 54.0136  6304.98  79.8249
 54.2116  6156.24  78.5511
 54.4096  6269.25  79.3145
 54.6076  6142.17  78.8528
 54.8056  6082.78  78.2613
 55.0036  6028.75  78.2972
 55.2016  6202.78  78.9656
 55.3996  6192.67  78.872
 55.5976  6149.04  78.7801
 55.7956  6268.96  79.3523
 55.9936  6214.19  79.1505
 56.1916  6102.19  78.4483
 56.3896  6216.28  79.1697
 56.5876  6143.15  79.2505
 56.7856  6122.69  78.5987
 56.9836  6092.4  78.1992
 57.1816  6136.16  78.8588
 57.3796  6141.23  78.683
 57.5776  6168.7  78.7919
 57.7756  6112.74  79.0661
 57.9736  6056.65  78.3821
 58.1716  6185.03  79.4438
 58.3696  6044.17  78.2845
 58.5676  6198.26  78.7453
 58.7656  6053.71  78.4976
 58.9636  6199.18  79.4683
 59.1616  6122.24  79.0964
 59.3596  6277.51  79.3379
 59.5576  6138.16  78.5094
 59.7556  6128.88  78.8713
 59.9536  6134.87  78.8079
 60.1516  6105.25  79.4708
 60.1996  0.0000000E+00  0.0000000E+00

File: 17_Da_f00074.xye
# /beamlines/bl04/projects/cycle2025-II/20250340211-lsimonelli/DATA/IS17_D/17_Da_f00074.xye : mythproc.py merge -s 0.006 -l 0.5 -f /beamlines/bl04/inhouse/ff/FlatField/ff_20Nov2024rod8mm60s_17keV.raw -b True -c true -o xye /beamlines/bl04/projects/cycle2025-II/20250340211-lsimonelli/DATA/IS17_D/17_Da_00074.dat
# IsMon = [6763307, 6764537, 6766887]  IsPos = [-1.4999, -2.4884, -3.4988]
# Wave = 0.4962  CalPath /beamlines/bl04/projects/cycle2025-II/20250340211-lsimonelli/DATA/Align/Si_Pos1_25keV_f00001.cal
# Date = 2025-09-24_14:09:11 Dt = 4.8000  Bin = 0.0060  <imon> = 6764910 +/- 1485 (Min/Max) 6763307 / 6766887
# icurr 250.3657  mocoIn 1.7074E-05  mocoOut 0.8012  i15 7.08156e+06  imon 6.76491e+06  i7 8.0000  iEMpd_timer 4.8000  iEMpd_1 3.1847E-08  iEMpd_2 7.8486E-08  iEMpd_3 1.5529E-08  iEMpd_4 4.7889E-08  iEMhp_timer 4.8000  iEMhp_1 4.8898E-06  iEMhp_2 -2.5524E-08  iEMhp_3 -2.5499E-08  iEMhp_4 -2.1421E-08
#      9776
 1.7416  68528.9  261.886
 1.9396  44441.8  211.164
 2.1376  31435.5  177.598
 2.3356  28243.6  167.986
 2.5336  27926.5  167.629
 2.7316  24611.4  157.468
 2.9296  23622  154.433
 3.1276  22897.2  151.603
 3.3256  22584.1  150.237
 3.5236  24519  156.35
 3.7216  22394.4  150.622
 3.9196  22287.7  149.509
 4.1176  21858.6  147.841
 4.3156  23234.9  152.577
 4.5136  26165.6  160.906
 4.7116  26818.1  164.025
 4.9096  26072.6  161.176
 5.1076  25649.3  160.43
 5.3056  25837.7  160.746
 5.5036  25616  159.953
 5.7016  26121.5  161.494
 5.8996  26539.7  162.01
 6.0976  27358.1  165.909
 6.2956  27807.1  166.605
 6.4936  28654  168.331
 6.6916  28955.2  170.196
 6.8896  29919.3  172.866
 7.0876  30937.1  176.503
 7.2856  30877  175.397
 7.4836  31465.2  176.396
 7.6816  31872.8  178.065
 7.8796  33860.8  183.523
 8.0776  37904.7  195.184
 8.2756  38126.4  194.327
 8.4736  37934.2  193.66
 8.6716  37163.6  192.322
 8.8696  37995.8  194.927
 9.0676  37539.6  193.121
 9.2656  35172  187.619
 9.4636  34907.2  185.303
 9.6616  33956.1  183.545
 9.8596  32399.9  178.78
 10.0576  30818.2  175.021
 10.2556  30118.8  173.462
 10.4536  33272.2  181.893
 10.6516  35528.3  188.185
 10.8496  27535.7  165.071
 11.0476  27592.3  165.264
 11.2456  30441.5  174.164
 11.4436  27084.3  163.434
 11.6416  25912.8  160.217
 11.8396  24762  156.823
 12.0376  24467.2  155.523
 12.2356  26093.9  161.032
 12.4336  24825.9  156.605
 12.6316  23625.1  153.036
 12.8296  24392.1  155.141
 13.0276  24662.3  156.172
 13.2256  24361.4  155.585
 13.4236  24580.6  156.052
 13.6216  24319.3  155.241
 13.8196  25364.4  158.301
 14.0176  23889.2  153.913
 14.2156  23417.2  151.429
 14.4136  22103.3  148.487
 14.6116  21894.6  146.994
 14.8096  21108.6  144.313
 15.0076  20249  145.153
 15.2056  19715.1  139.07
 15.4036  18937.2  137.133
 15.6016  18540.4  134.764
 15.7996  18120.5  133.51
 15.9976  17235.6  133.131
 16.1956  16776.1  129.237
 16.3936  16269.6  126.457
 16.5916  16434  127.718
 16.7896  16417.8  127.719
 16.9876  16090.8  127.901
 17.1856  16150.2  126.504
 17.3836  15208.6  122.666
 17.5816  15024.6  122.407
 17.7796  15112.6  122.694
 17.9776  15355.6  124.469
 18.1756  16065.8  125.96
 18.3736  16336.1  127.569
 18.5716  14548.4  120.14
 18.7696  14690.8  120.288
 18.9676  14215.8  118.139
 19.1656  13994.8  117.775
 19.3636  13989.9  117.952
 19.5616  14103.5  118.601
 19.7596  14034.1  117.72
 19.9576  14532.6  119.839
 20.1556  13678.4  116.778
 20.3536  13547.2  115.599
 20.5516  13425.4  115.523
 20.7496  13139.3  114.228
 20.9476  13578.2  115.874
 21.1456  13648.2  116.499
 21.3436  12905  113.235
 21.5416  12880.5  113.131
 21.7396  12685.9  112.116
 21.9376  12897  112.809
 22.1356  13051  113.609
 22.3336  12959.8  113.506
 22.5316  12715.3  112.518
 22.7296  12540.5  111.096
 22.9276  12584.3  111.974
 23.1256  13091.7  113.665
 23.3236  12504.7  111.651
 23.5216  12493.4  111.264
 23.7196  12357.8  110.604
 23.9176  12318.9  110.191
 24.1156  12254.4  110.371
 24.3136  11897.3  109.552
 24.5116  12039.8  109.729
 24.7096  11850.4  108.678
 24.9076  11561.3  107.37
 25.1056  11329.8  106.756
 25.3036  11120.3  105.267
 25.5016  11217.2  105.759
 25.6996  11201.6  105.264
 25.8976  11301  106.173
 26.0956  11208.6  105.755
 26.2936  11000.1  104.418
 26.4916  11043.4  104.501
 26.6896  10743.9  103.371
 26.8876  10588  102.471
 27.0856  10641.4  102.78
 27.2836  10410.8  101.555
 27.4816  10451.1  101.678
 27.6796  10346  101.549
 27.8776  10484.7  102.075
 28.0756  10289.7  101.415
 28.2736  10281.6  100.957
 28.4716  10001.2  99.6205
 28.6696  10086.4  99.889
 28.8676  9907.98  99.3511
 29.0656  9756.77  98.5622
 29.2636  9801.43  98.5866
 29.4616  9634.02  97.9168
 29.6596  9737.05  98.0033
 29.8576  9449.63  97.2279
 30.0556  9783.1  98.798
 30.2536  9588.49  97.6097
 30.4516  9601.56  97.3291
 30.6496  9541.08  96.7522
 30.8476  9437.95  96.67
 31.0456  9325.39  96.0536
 31.2436  9372.52  95.5626
 31.4416  9104.13  94.3619
 31.6396  9737.43  97.6393
 31.8376  9252.6  94.7262
 32.0356  9182.11  94.929
 32.2336  9150.6  94.1576
 32.4316  9116.73  94.3838
 32.6296  9061  93.933
 32.8276  9100.79  93.9013
 33.0256  8900.87  92.9463
 33.2236  8868.22  92.9248
 33.4216  8908.19  92.8248
 33.6196  8927.63  93.2187
 33.8176  8953.06  93.5153
 34.0156  8810.25  92.3746
 34.2136  8735.65  92.03
 34.4116  8673.53  91.8543
 34.6096  8726.87  92.0089
 34.8076  8529.03  91.3651
 35.0056  8572.89  91.2975
 35.2036  8528.67  91.2732
 35.4016  8537.76  91.2411
 35.5996  8387.59  90.4691
 35.7976  8418.75  90.9135
 35.9956  8508.19  91.0344
 36.1936  8503.32  90.8799
 36.3916  8314.75  90.042
 36.5896  8356.23  91.2444
 36.7876  8458.7  91.1946
 36.9856  8245.15  90.0643
 37.1836  8352.31  89.7435
 37.3816  8263.01  89.6223
 37.5796  8225.94  91.164
 37.7776  7956.45  88.0442
 37.9756  8128.54  88.8758
 38.1736  8328.96  90.1626
 38.3716  8076.69  89.0544
 38.5696  7975.13  88.8785
 38.7676  7737.16  87.0556
 38.9656  8017.28  88.254
 39.1636  7820.49  87.4195
 39.3616  8016.07  88.4349
 39.5596  7834.67  88.2786
 39.7576  7775.99  87.3142
 39.9556  7952.22  87.9461
 40.1536  8020.6  88.5297
 40.3516  8027.49  88.5754
 40.5496  7964.2  88.4861
 40.7476  7992.63  88.6432
 40.9456  8041.42  88.6671
 41.1436  8060.43  88.4902
 41.3416  7909.4  87.9938
 41.5396  7832.18  87.3707
 41.7376  7932.79  88.198
 41.9356  7905.08  87.9004
 42.1336  7851.32  87.7514
 42.3316  7849.03  87.9348
 42.5296  7847.39  87.4379
 42.7276  8020.53  88.6442
 42.9256  7931.45  88.0222
 43.1236  7775.28  87.2582
 43.3216  7838.48  87.3589
 43.5196  7673.55  86.5041
 43.7176  7713.56  87.1196
 43.9156  7564.96  86.1746
 44.1136  7561.71  85.7182
 44.3116  7669.2  86.3329
 44.5096  7515.38  85.7762
 44.7076  7536.42  85.8269
 44.9056  7538.29  85.709
 45.1036  7576.82  85.5544
 45.3016  7439.49  85.2737
 45.4996  7388.22  84.918
 45.6976  7185.84  83.9158
 45.8956  7396.94  84.9672
 46.0936  7336.69  84.625
 46.2916  7401.96  84.9807
 46.4896  7320.14  84.5384
 46.6876  7339.71  85.358
 46.8856  7197.79  83.7899
 47.0836  7115.57  83.567
 47.2816  7046.94  83.0404
 47.4796  7114.42  83.5475
 47.6776  6958.8  83.5473
 47.8756  7105.66  83.6045
 48.0736  7113.18  84.1032
 48.2716  6925.51  82.8092
 48.4696  7056.83  83.1945
 48.6676  7132.5  84.2223
 48.8656  7006.57  83.1953
 49.0636  7049.73  83.4115
 49.2616  6863.95  82.3316
 49.4596  6865.15  81.9102
 49.6576  6857.6  82.0879
 49.8556  6930.64  82.5421
 50.0536  6777.45  82.0662
 50.2516  6844.41  82.6048
 50.4496  6836.95  82.2165
 50.6476  6733.03  81.2764
 50.8456  6804.41  81.7947
 51.0436  6546.95  80.6594
 51.2416  6586.98  80.5834
 51.4396  6557.94  80.7988
 51.6376  6669.66  81.3084
 51.8356  6568.53  80.3292
 52.0336  6502.76  80.4234
 52.2316  6492.05  80.6998
 52.4296  6556.23  80.7979
 52.6276  6521.22  80.6828
 52.8256  6529.64  80.3156
 53.0236  6368.32  79.9507
 53.2216  6310.21  79.6169
 53.4196  6259.42  79.225
 53.6176  6153.41  79.0173
 53.8156  6291.36  79.5694
 54.0136  6446.09  80.7112
 54.2116  6228.24  79.0076
 54.4096  6327.25  79.6832
 54.6076  6278.13  79.7207
 54.8056  6285.03  79.5498
 55.0036  6119.28  78.8763
 55.2016  6280.22  79.4576
 55.3996  6161.45  78.6737
 55.5976  6231.38  79.2992
 55.7956  6303.9  79.5803
 55.9936  6143.02  78.6914
 56.1916  6135.4  78.6641
 56.3896  6185.91  78.9753
 56.5876  6097.17  78.9579
 56.7856  6211.69  79.1809
 56.9836  6112.26  78.3203
 57.1816  6171.76  79.0848
 57.3796  6125.52  78.5856
 57.5776  6162.65  78.742
 57.7756  6039.27  78.5945
 57.9736  6049.98  78.336
 58.1716  6143.06  79.176
 58.3696  6070.83  78.4544
 58.5676  6201.13  78.7763
 58.7656  6089.18  78.7275
 58.9636  6117.16  78.9433
 59.1616  6161.65  79.35
 59.3596  6204.14  78.8783
 59.5576  6283.28  79.4375
 59.7556  6214.37  79.4249
 59.9536  6341.01  80.1264
 60.1516  6216.2  80.195
 60.1996  0.0000000E+00  0.0000000E+00