Folder: echemistpy/docs/examples/opeando_xrd/IS17_D/Data/IS17_D (part 24)

File: 17_Da_f00065.xye
# /beamlines/bl04/projects/cycle2025-II/20250340211-lsimonelli/DATA/IS17_D/17_Da_f00065.xye : mythproc.py merge -s 0.006 -l 0.5 -f /beamlines/bl04/inhouse/ff/FlatField/ff_20Nov2024rod8mm60s_17keV.raw -b True -c true -o xye /beamlines/bl04/projects/cycle2025-II/20250340211-lsimonelli/DATA/IS17_D/17_Da_00065.dat
# IsMon = [6790497, 6790942, 6789522]  IsPos = [-1.4999, -2.4885, -3.4988]
# Wave = 0.4962  CalPath /beamlines/bl04/projects/cycle2025-II/20250340211-lsimonelli/DATA/Align/Si_Pos1_25keV_f00001.cal
# Date = 2025-09-24_11:40:15 Dt = 4.8000  Bin = 0.0060  <imon> = 6790320 +/- 593 (Min/Max) 6789522 / 6790942
# icurr 252.4348  mocoIn 1.7228E-05  mocoOut 0.8079  i15 7.10649e+06  imon 6.79032e+06  i7 4.6667  iEMpd_timer 4.8000  iEMpd_1 3.2543E-08  iEMpd_2 7.8816E-08  iEMpd_3 1.6480E-08  iEMpd_4 4.7739E-08  iEMhp_timer 4.8000  iEMhp_1 4.9314E-06  iEMhp_2 -2.6341E-08  iEMhp_3 -2.4284E-08  iEMhp_4 -2.1420E-08
#      9776
 1.7416  70122.9  264.88
 1.9396  45694.5  214.096
 2.1376  32359.9  180.166
 2.3356  28953.9  170.063
 2.5336  27835.7  167.334
 2.7316  25381.4  159.895
 2.9296  24248.7  156.452
 3.1276  23542.1  153.711
 3.3256  23434.5  153.027
 3.5236  25125.9  158.409
 3.7216  23068.9  152.876
 3.9196  22843.8  151.359
 4.1176  22601.7  150.326
 4.3156  23951.9  154.916
 4.5136  26567.6  162.134
 4.7116  27516.5  166.145
 4.9096  26840.1  163.527
 5.1076  26395.7  162.741
 5.3056  26887.7  163.989
 5.5036  26425.5  162.548
 5.7016  26885.6  163.838
 5.8996  27342.1  164.439
 6.0976  28428.1  169.12
 6.2956  28714.9  169.306
 6.4936  29474.2  170.722
 6.6916  29840.3  172.777
 6.8896  30762.3  175.281
 7.0876  31691.1  178.642
 7.2856  31632.3  177.53
 7.4836  32119.2  178.224
 7.6816  33000.4  181.189
 7.8796  34440.8  185.102
 8.0776  36827.8  192.402
 8.2756  38229.1  194.61
 8.4736  38761  195.772
 8.6716  37833.1  194.049
 8.8696  37882.6  194.663
 9.0676  37169.7  192.175
 9.2656  36186.9  190.318
 9.4636  35747.3  187.541
 9.6616  34754.3  185.701
 9.8596  33448.2  181.628
 10.0576  31417.2  176.697
 10.2556  30546.9  174.67
 10.4536  31052.4  175.699
 10.6516  31253  176.476
 10.8496  28330.9  167.432
 11.0476  27864.6  166.027
 11.2456  28043.3  167.156
 11.4436  27525  164.759
 11.6416  26586.5  162.288
 11.8396  25065.5  157.779
 12.0376  25056.4  157.369
 12.2356  25079.5  157.9
 12.4336  24793.9  156.508
 12.6316  24032.2  154.345
 12.8296  24473.6  155.4
 13.0276  25117.4  157.613
 13.2256  24797  156.971
 13.4236  24809.6  156.779
 13.6216  24669.6  156.351
 13.8196  24938.7  156.969
 14.0176  24338.2  155.36
 14.2156  23888  152.948
 14.4136  22599.9  150.148
 14.6116  22307.5  148.37
 14.8096  21605.5  146.008
 15.0076  20532.2  146.167
 15.2056  20116.6  140.488
 15.4036  19254.1  138.282
 15.6016  18760.8  135.572
 15.7996  18546.4  135.084
 15.9976  17612.1  134.588
 16.1956  17125.8  130.582
 16.3936  16722.5  128.209
 16.5916  16520.6  128.069
 16.7896  16803.9  129.221
 16.9876  16397.9  129.115
 17.1856  16190.7  126.654
 17.3836  15609.2  124.249
 17.5816  15363.5  123.765
 17.7796  15151.1  122.831
 17.9776  15155.2  123.659
 18.1756  15702.9  124.548
 18.3736  15409.6  123.898
 18.5716  14811.7  121.217
 18.7696  14770.4  120.616
 18.9676  14430.6  119.025
 19.1656  14362.7  119.313
 19.3636  14399.2  119.664
 19.5616  14128.3  118.7
 19.7596  14360.4  119.07
 19.9576  15033.9  121.888
 20.1556  14141.1  118.738
 20.3536  13787.1  116.618
 20.5516  13557  116.092
 20.7496  13395.8  115.341
 20.9476  13341  114.85
 21.1456  13527.6  115.986
 21.3436  13165.6  114.366
 21.5416  12999.2  113.65
 21.7396  12850.5  112.846
 21.9376  12970  113.136
 22.1356  13074.8  113.717
 22.3336  12977.1  113.567
 22.5316  12944.4  113.525
 22.7296  12763.9  112.078
 22.9276  12693.4  112.465
 23.1256  13197.2  114.14
 23.3236  12630  112.216
 23.5216  12719  112.266
 23.7196  12476.3  111.138
 23.9176  12604  111.452
 24.1156  12377.7  110.928
 24.3136  12011.5  110.064
 24.5116  12079.4  109.898
 24.7096  11956.1  109.151
 24.9076  11447.9  106.828
 25.1056  11433  106.954
 25.3036  11238.6  105.824
 25.5016  11309.7  106.194
 25.6996  11258.1  105.532
 25.8976  11217.9  105.781
 26.0956  11304.7  106.212
 26.2936  11114.9  104.954
 26.4916  11083.5  104.692
 26.6896  10829.1  103.78
 26.8876  10742.5  103.215
 27.0856  10870.2  103.839
 27.2836  10573.2  102.338
 27.4816  10492.7  101.881
 27.6796  10337.1  101.503
 27.8776  10508  102.195
 28.0756  10440.9  102.16
 28.2736  10302.7  101.059
 28.4716  10004.8  99.6368
 28.6696  10084.4  99.8775
 28.8676  9827.3  98.9455
 29.0656  9875.03  99.1594
 29.2636  9941.02  99.1998
 29.4616  9597.59  97.7382
 29.6596  9816.5  98.4077
 29.8576  9728.67  98.6596
 30.0556  9755.7  98.67
 30.2536  9897.36  99.1762
 30.4516  9738.65  98.0289
 30.6496  9710.32  97.6103
 30.8476  9550.92  97.2482
 31.0456  9430.64  96.5907
 31.2436  9540.38  96.4161
 31.4416  9287.88  95.3062
 31.6396  9508.68  96.4788
 31.8376  9300.53  94.9685
 32.0356  9273.59  95.3948
 32.2336  9136.87  94.0732
 32.4316  9109.72  94.3425
 32.6296  9146.55  94.3031
 32.8276  9262.36  94.7416
 33.0256  9074.46  93.8453
 33.2236  9010.21  93.6609
 33.4216  9090.63  93.7723
 33.6196  8913.07  93.1426
 33.8176  9019.81  93.8545
 34.0156  8878.01  92.7298
 34.2136  8908.33  92.9276
 34.4116  8746.41  92.2407
 34.6096  8769.61  92.2401
 34.8076  8629.31  91.9122
 35.0056  8618.55  91.5387
 35.2036  8590.74  91.5976
 35.4016  8615.23  91.6559
 35.5996  8591.85  91.5658
 35.7976  8511.89  91.4156
 35.9956  8552.42  91.2725
 36.1936  8586.86  91.3271
 36.3916  8488.93  90.9776
 36.5896  8457.49  92.2641
 36.7876  8432.93  91.0641
 36.9856  8319.11  90.4747
 37.1836  8344.74  89.7073
 37.3816  8457.46  90.6824
 37.5796  8176.06  90.8873
 37.7776  8088.14  88.7724
 37.9756  8287.51  89.7367
 38.1736  8356.27  90.3141
 38.3716  8185.63  89.6636
 38.5696  8131.77  89.7461
 38.7676  7941.89  88.1932
 38.9656  8018.23  88.2501
 39.1636  7995.89  88.3617
 39.3616  8019.62  88.4564
 39.5596  8019.59  89.3149
 39.7576  7938.14  88.2317
 39.9556  7931.73  87.8317
 40.1536  8226.24  89.6536
 40.3516  8126.15  89.1182
 40.5496  8257.36  89.8851
 40.7476  8147.61  89.5023
 40.9456  8172.25  89.3904
 41.1436  8077.98  88.5858
 41.3416  8040.64  88.7205
 41.5396  8043.51  88.5451
 41.7376  8081.48  89.0231
 41.9356  7988.12  88.3651
 42.1336  8033.36  88.7569
 42.3316  7950.15  88.5024
 42.5296  7926.94  87.8861
 42.7276  7961.74  88.3209
 42.9256  8022.58  88.5272
 43.1236  7822.45  87.5231
 43.3216  7891.87  87.7616
 43.5196  7788.42  87.1472
 43.7176  7703.72  87.0651
 43.9156  7724.12  87.0906
 44.1136  7681.69  86.4032
 44.3116  7798.96  87.0736
 44.5096  7621.02  86.3829
 44.7076  7735.49  86.9601
 44.9056  7591.69  86.0154
 45.1036  7603.23  85.7066
 45.3016  7526.72  85.7734
 45.4996  7376.41  84.8533
 45.6976  7293.49  84.5494
 45.8956  7429.38  85.1455
 46.0936  7377.89  84.8549
 46.2916  7470.07  85.3612
 46.4896  7401.12  85.0006
 46.6876  7354.29  85.4378
 46.8856  7300.92  84.4
 47.0836  7273.66  84.4829
 47.2816  7232.36  84.124
 47.4796  7274.67  84.484
 47.6776  7193.71  84.9458
 47.8756  7168.99  83.9732
 48.0736  7241.6  84.8628
 48.2716  7060.23  83.613
 48.4696  7041.44  83.0912
 48.6676  7061.1  83.7914
 48.8656  7089.7  83.6865
 49.0636  7138.88  83.9314
 49.2616  6910.19  82.6104
 49.4596  6941.69  82.3614
 49.6576  6923.57  82.4839
 49.8556  6857.25  82.1033
 50.0536  6939.58  83.0448
 50.2516  6908.09  82.9591
 50.4496  6775.74  81.8443
 50.6476  6879.01  82.15
 50.8456  6965.57  82.7532
 51.0436  6750.93  81.9116
 51.2416  6711.23  81.3464
 51.4396  6629.23  81.2378
 51.6376  6544.58  80.5441
 51.8356  6597.74  80.5019
 52.0336  6525.63  80.5703
 52.2316  6540.86  81.0154
 52.4296  6536.13  80.6636
 52.6276  6574.55  81.0299
 52.8256  6601.43  80.7486
 53.0236  6475.79  80.6146
 53.2216  6382.87  80.0667
 53.4196  6323.12  79.6163
 53.6176  6354.37  80.2883
 53.8156  6280.61  79.4935
 54.0136  6446.69  80.7214
 54.2116  6343.94  79.7352
 54.4096  6421.55  80.2638
 54.6076  6319.48  79.9815
 54.8056  6196.32  78.9893
 55.0036  6290.91  79.9779
 55.2016  6260.28  79.3311
 55.3996  6289.72  79.4887
 55.5976  6294.18  79.7042
 55.7956  6332.73  79.7617
 55.9936  6286.18  79.6015
 56.1916  6280.87  79.5852
 56.3896  6261.34  79.4586
 56.5876  6207.88  79.6643
 56.7856  6210.35  79.1629
 56.9836  6172.27  78.7068
 57.1816  6306.6  79.9413
 57.3796  6210.32  79.1291
 57.5776  6237.67  79.2171
 57.7756  6125.63  79.1528
 57.9736  6215.35  79.4021
 58.1716  6263.93  79.9543
 58.3696  6148.95  78.9633
 58.5676  6302.22  79.407
 58.7656  6243.99  79.73
 58.9636  6243.97  79.7619
 59.1616  6183.74  79.5062
 59.3596  6405.6  80.1653
 59.5576  6402.34  80.2029
 59.7556  6341.02  80.2466
 59.9536  6327.81  80.0594
 60.1516  6352.11  81.0836
 60.1996  0.0000000E+00  0.0000000E+00

File: 17_Da_f00066.xye
# /beamlines/bl04/projects/cycle2025-II/20250340211-lsimonelli/DATA/IS17_D/17_Da_f00066.xye : mythproc.py merge -s 0.006 -l 0.5 -f /beamlines/bl04/inhouse/ff/FlatField/ff_20Nov2024rod8mm60s_17keV.raw -b True -c true -o xye /beamlines/bl04/projects/cycle2025-II/20250340211-lsimonelli/DATA/IS17_D/17_Da_00066.dat
# IsMon = [6743263, 6747671, 6763657]  IsPos = [-1.4999, -2.4884, -3.4989]
# Wave = 0.4962  CalPath /beamlines/bl04/projects/cycle2025-II/20250340211-lsimonelli/DATA/Align/Si_Pos1_25keV_f00001.cal
# Date = 2025-09-24_11:56:47 Dt = 4.8000  Bin = 0.0060  <imon> = 6751530 +/- 8762 (Min/Max) 6743263 / 6763657
# icurr 248.8566  mocoIn 1.6978E-05  mocoOut 0.7971  i15 7.07162e+06  imon 6.75153e+06  i7 6.0000  iEMpd_timer 4.8000  iEMpd_1 3.1861E-08  iEMpd_2 7.9142E-08  iEMpd_3 1.6403E-08  iEMpd_4 4.6015E-08  iEMhp_timer 4.8000  iEMhp_1 4.8682E-06  iEMhp_2 -2.5047E-08  iEMhp_3 -2.5061E-08  iEMhp_4 -2.1887E-08
#      9776
 1.7416  69007.9  262.93
 1.9396  45064.2  212.746
 2.1376  31859.9  178.881
 2.3356  28348.7  168.382
 2.5336  27219.6  165.575
 2.7316  24650  157.644
 2.9296  23621.4  154.488
 3.1276  23176.7  152.59
 3.3256  22837.9  151.131
 3.5236  24805.5  157.312
 3.7216  22868  152.207
 3.9196  22539.3  150.35
 4.1176  22193.5  148.989
 4.3156  23546.7  153.564
 4.5136  25943.6  160.233
 4.7116  27024  164.652
 4.9096  26352.7  162.034
 5.1076  25820.9  160.986
 5.3056  26459.8  162.64
 5.5036  25994.3  161.145
 5.7016  26409.3  162.381
 5.8996  27029.8  163.497
 6.0976  27822.8  167.331
 6.2956  28220.6  167.822
 6.4936  29003.4  169.355
 6.6916  29409.6  171.524
 6.8896  30213.3  173.714
 7.0876  31201.2  177.255
 7.2856  31114.3  176.073
 7.4836  31743  177.177
 7.6816  32479.7  179.753
 7.8796  34059.4  184.014
 8.0776  36449.1  191.35
 8.2756  37686  193.13
 8.4736  37986.4  193.74
 8.6716  37561.7  193.334
 8.8696  37990.7  194.896
 9.0676  36604.8  190.676
 9.2656  35731.1  189.076
 9.4636  35027.4  185.568
 9.6616  34479.9  184.893
 9.8596  32820.6  180.004
 10.0576  31130  175.964
 10.2556  29906.9  172.911
 10.4536  30839.3  175.181
 10.6516  31099  176.124
 10.8496  27764  165.745
 11.0476  27418.7  164.743
 11.2456  27827.6  166.525
 11.4436  27406.4  164.396
 11.6416  25993.7  160.468
 11.8396  24695.2  156.631
 12.0376  24491.6  155.569
 12.2356  24995.3  157.617
 12.4336  24470.9  155.473
 12.6316  23766.1  153.512
 12.8296  24214  154.573
 13.0276  24807.6  156.62
 13.2256  24392.8  155.687
 13.4236  24349.8  155.315
 13.6216  24386.7  155.473
 13.8196  24606  155.914
 14.0176  23650.9  153.059
 14.2156  23472  151.614
 14.4136  22431.1  149.58
 14.6116  22074.2  147.593
 14.8096  21333  145.053
 15.0076  20163.6  144.882
 15.2056  19684.4  138.925
 15.4036  18870.8  136.853
 15.6016  18620.7  135.027
 15.7996  18172.3  133.645
 15.9976  17397.7  134.363
 16.1956  16813.9  129.366
 16.3936  16435.9  127.086
 16.5916  16382.2  127.506
 16.7896  16517.7  128.096
 16.9876  16227.8  128.464
 17.1856  15956.1  125.787
 17.3836  15240.2  122.839
 17.5816  15072.8  122.646
 17.7796  15228.6  123.205
 17.9776  14994.3  122.99
 18.1756  15515.5  123.802
 18.3736  15395.2  123.842
 18.5716  14565.8  120.206
 18.7696  14599.2  119.907
 18.9676  14170.4  117.96
 19.1656  14161.1  118.445
 19.3636  13972.8  117.89
 19.5616  13905.6  117.761
 19.7596  14162.9  118.262
 19.9576  14762.7  120.784
 20.1556  13823.6  117.385
 20.3536  13412.5  115.024
 20.5516  13483.6  115.774
 20.7496  13145.4  114.258
 20.9476  13368.7  114.986
 21.1456  13393.2  115.393
 21.3436  13065.9  113.939
 21.5416  12981.1  113.566
 21.7396  12745.2  112.378
 21.9376  12877.7  112.708
 22.1356  12857.3  112.77
 22.3336  12734.7  112.507
 22.5316  12692.8  112.389
 22.7296  12697.2  111.77
 22.9276  12595.9  111.996
 23.1256  12892  112.757
 23.3236  12598.4  112.071
 23.5216  12474.7  111.167
 23.7196  12430.5  110.912
 23.9176  12171.5  109.533
 24.1156  12099.9  109.658
 24.3136  11771.2  109.011
 24.5116  11896.1  109.113
 24.7096  11555.1  107.355
 24.9076  11499.4  107.121
 25.1056  11360.7  106.942
 25.3036  11086.3  105.114
 25.5016  11060.6  105.02
 25.6996  11133.7  104.947
 25.8976  11027.5  104.896
 26.0956  11129.9  105.36
 26.2936  11039.3  104.607
 26.4916  11046.1  104.512
 26.6896  10711  103.212
 26.8876  10611.8  102.593
 27.0856  10621.3  102.66
 27.2836  10552.6  102.244
 27.4816  10456.6  101.711
 27.6796  10280.5  101.224
 27.8776  10318.2  101.284
 28.0756  10240  101.156
 28.2736  10209.5  100.603
 28.4716  9909.34  99.1546
 28.6696  9909.91  99.0048
 28.8676  9841.43  99.0125
 29.0656  9719.84  98.3777
 29.2636  9709.09  98.1384
 29.4616  9619.7  97.8187
 29.6596  9659.53  97.5875
 29.8576  9448.91  97.2006
 30.0556  9645.69  98.0563
 30.2536  9531.73  97.2955
 30.4516  9648.22  97.5553
 30.6496  9522.38  96.6441
 30.8476  9449.36  96.7149
 31.0456  9424.02  96.5671
 31.2436  9318.66  95.2965
 31.4416  9050.45  94.1223
 31.6396  9507.54  96.5206
 31.8376  9376.94  95.3951
 32.0356  9262.41  95.382
 32.2336  9076.56  93.8115
 32.4316  9038.51  93.9831
 32.6296  8946.42  93.3415
 32.8276  9038.77  93.5918
 33.0256  8867.51  92.7732
 33.2236  8885.84  93.0283
 33.4216  8953.02  93.0358
 33.6196  8918.52  93.1779
 33.8176  8872.11  93.089
 34.0156  8703.28  91.8182
 34.2136  8797.41  92.3639
 34.4116  8724.19  92.1089
 34.6096  8629.54  91.4978
 34.8076  8554.73  91.5066
 35.0056  8515.36  90.9914
 35.2036  8513.6  91.1846
 35.4016  8553.67  91.3144
 35.5996  8360.85  90.3208
 35.7976  8339.66  90.483
 35.9956  8483.85  90.9026
 36.1936  8367.1  90.1407
 36.3916  8324.08  90.0853
 36.5896  8205.9  90.4343
 36.7876  8403.27  90.8748
 36.9856  8175.06  89.6605
 37.1836  8273.17  89.2956
 37.3816  8403.34  90.3462
 37.5796  8042.06  90.1367
 37.7776  7879.84  87.622
 37.9756  8055.71  88.486
 38.1736  8199.19  89.4352
 38.3716  8109.69  89.2285
 38.5696  8002.49  89.0269
 38.7676  7796.88  87.4267
 38.9656  7999.68  88.1897
 39.1636  7896.23  87.8881
 39.3616  8032.02  88.5569
 39.5596  7839.72  88.3027
 39.7576  7872.77  87.8678
 39.9556  7991.99  88.1638
 40.1536  8018.16  88.5113
 40.3516  8074.97  88.8333
 40.5496  7921.69  88.257
 40.7476  8126.79  89.3913
 40.9456  7983.67  88.3366
 41.1436  7915.8  87.7084
 41.3416  7955.83  88.2428
 41.5396  7904.97  87.7814
 41.7376  7875.48  87.8801
 41.9356  7827.05  87.4683
 42.1336  7915.13  88.1188
 42.3316  7763.72  87.4466
 42.5296  7839.58  87.3972
 42.7276  7851.56  87.7057
 42.9256  7919.54  87.9528
 43.1236  7775.46  87.2593
 43.3216  7772.19  86.9861
 43.5196  7690.87  86.6125
 43.7176  7755.62  87.3575
 43.9156  7658.35  86.6943
 44.1136  7568.47  85.7372
 44.3116  7573.16  85.7547
 44.5096  7624.61  86.3788
 44.7076  7527.17  85.755
 44.9056  7567.64  85.8634
 45.1036  7461.61  84.8903
 45.3016  7452.87  85.3396
 45.4996  7351.9  84.6983
 45.6976  7224.61  84.1162
 45.8956  7411.97  85.085
 46.0936  7346.15  84.7166
 46.2916  7262.45  84.2083
 46.4896  7312.36  84.5222
 46.6876  7235.92  84.7832
 46.8856  7186.39  83.7295
 47.0836  7205.92  84.1037
 47.2816  7080.74  83.2435
 47.4796  7057.31  83.2051
 47.6776  6998.7  83.7893
 47.8756  7000.98  82.9933
 48.0736  7025.16  83.5804
 48.2716  6875.03  82.5018
 48.4696  7043.37  83.1095
 48.6676  6990.83  83.3641
 48.8656  7023.53  83.2949
 49.0636  7046.75  83.4063
 49.2616  6875.93  82.3926
 49.4596  6955.66  82.4467
 49.6576  6819.57  81.8637
 49.8556  6822.54  81.8961
 50.0536  6827.77  82.3687
 50.2516  6796.48  82.3143
 50.4496  6767.22  81.8
 50.6476  6827.39  81.8418
 50.8456  6758.53  81.5192
 51.0436  6687.79  81.5018
 51.2416  6592.3  80.5789
 51.4396  6502.15  80.4337
 51.6376  6571.01  80.7021
 51.8356  6570.52  80.3362
 52.0336  6516.02  80.4994
 52.2316  6409.88  80.1795
 52.4296  6526.24  80.5781
 52.6276  6430.95  80.1049
 52.8256  6433.12  79.7054
 53.0236  6357.87  79.9159
 53.2216  6310.99  79.6504
 53.4196  6176.28  78.7262
 53.6176  6323.25  80.1307
 53.8156  6282.93  79.5435
 54.0136  6345.72  80.0657
 54.2116  6228.37  79.0198
 54.4096  6275.37  79.3609
 54.6076  6221.86  79.3626
 54.8056  6165.94  78.7944
 55.0036  6178.29  79.2605
 55.2016  6280.12  79.5014
 55.3996  6200.19  78.9132
 55.5976  6151.24  78.7923
 55.7956  6224.82  79.076
 55.9936  6157.29  78.7964
 56.1916  6205.63  79.1142
 56.3896  6199.04  79.051
 56.5876  6132.8  79.1865
 56.7856  6084.47  78.3423
 56.9836  5979.02  77.4709
 57.1816  6230.43  79.3556
 57.3796  6249.81  79.3851
 57.5776  6085.08  78.2497
 57.7756  6163.46  79.3981
 57.9736  6136.47  78.8975
 58.1716  6150.84  79.214
 58.3696  6013.79  78.0852
 58.5676  6170.63  78.5721
 58.7656  6154.02  79.1255
 58.9636  6160.39  79.2006
 59.1616  6135.79  79.1685
 59.3596  6333.74  79.6379
 59.5576  6177.47  78.7066
 59.7556  6185.38  79.1799
 59.9536  6424.14  80.5894
 60.1516  6186.62  79.9439
 60.1996  6179.82  83.0794