Folder: echemistpy/docs/examples/opeando_xrd/IS17_D/Data/IS17_D (part 12)

File: 17_Da_f00036.xye
# /beamlines/bl04/projects/cycle2025-II/20250340211-lsimonelli/DATA/IS17_D/17_Da_f00036.xye : mythproc.py merge -s 0.006 -l 0.5 -f /beamlines/bl04/inhouse/ff/FlatField/ff_20Nov2024rod8mm60s_17keV.raw -b True -c true -o xye /beamlines/bl04/projects/cycle2025-II/20250340211-lsimonelli/DATA/IS17_D/17_Da_00036.dat
# IsMon = [6744571, 6746728, 6741809]  IsPos = [-1.5000, -2.4884, -3.4986]
# Wave = 0.4962  CalPath /beamlines/bl04/projects/cycle2025-II/20250340211-lsimonelli/DATA/Align/Si_Pos1_25keV_f00001.cal
# Date = 2025-09-24_03:35:38 Dt = 4.8000  Bin = 0.0060  <imon> = 6744369 +/- 2013 (Min/Max) 6741809 / 6746728
# icurr 248.7814  mocoIn 1.6979E-05  mocoOut 0.7970  i15 7.06127e+06  imon 6.74437e+06  i7 8.3333  iEMpd_timer 4.8000  iEMpd_1 3.5249E-08  iEMpd_2 7.6611E-08  iEMpd_3 1.6329E-08  iEMpd_4 4.8887E-08  iEMhp_timer 4.8000  iEMhp_1 4.8634E-06  iEMhp_2 -2.5359E-08  iEMhp_3 -2.3310E-08  iEMhp_4 -2.2544E-08
#      9776
 1.7416  70296.6  265.207
 1.9396  46001.6  214.817
 2.1376  32426.2  180.351
 2.3356  28593.5  169.001
 2.5336  26910.1  164.528
 2.7316  25256  159.489
 2.9296  23899.8  155.312
 3.1276  23476.5  153.48
 3.3256  23173.3  152.157
 3.5236  25231.6  158.575
 3.7216  22969.7  152.547
 3.9196  22269  149.445
 4.1176  22316.3  149.372
 4.3156  23562.8  153.662
 4.5136  26105.9  160.714
 4.7116  26879.4  164.212
 4.9096  26150.1  161.41
 5.1076  25888.2  161.169
 5.3056  26462.8  162.573
 5.5036  25956.9  160.981
 5.7016  26386.4  162.311
 5.8996  26937.4  163.225
 6.0976  27654  166.8
 6.2956  28047.5  167.327
 6.4936  28548  168.009
 6.6916  29042.4  170.452
 6.8896  29895.5  172.799
 7.0876  30918.3  176.367
 7.2856  30552.1  174.472
 7.4836  30979  175.034
 7.6816  31720.9  177.641
 7.8796  33056.2  181.338
 8.0776  34434.4  186.047
 8.2756  36221.9  189.45
 8.4736  36439.5  189.82
 8.6716  35968.3  189.197
 8.8696  35716.1  189.018
 9.0676  34979.9  186.443
 9.2656  33880.9  184.163
 9.4636  33470.7  181.495
 9.6616  32690.9  180.125
 9.8596  31434  176.064
 10.0576  29957.1  172.531
 10.2556  28731.1  169.388
 10.4536  27891.7  166.51
 10.6516  27157.4  164.488
 10.8496  26203.8  161.026
 11.0476  25610.9  159.218
 11.2456  24843.9  157.328
 11.4436  25117  157.385
 11.6416  25724.9  159.636
 11.8396  23635.9  153.214
 12.0376  23601.6  152.758
 12.2356  22949.6  151.009
 12.4336  23003.6  150.75
 12.6316  22794.5  150.324
 12.8296  23128.6  151.07
 13.0276  23588.3  152.739
 13.2256  23618.9  153.199
 13.4236  23644.8  153.049
 13.6216  23332.9  152.055
 13.8196  23594.5  152.679
 14.0176  23130.3  151.454
 14.2156  22474  148.353
 14.4136  21443.3  146.252
 14.6116  21322.9  145.062
 14.8096  20853.2  143.448
 15.0076  19468.7  142.308
 15.2056  19315.7  137.662
 15.4036  18190.8  134.403
 15.6016  17744  131.851
 15.7996  17344.8  130.635
 15.9976  16764.2  131.319
 16.1956  16132.5  126.746
 16.3936  15996.9  125.403
 16.5916  15740.6  125.015
 16.7896  15786.7  125.255
 16.9876  15563.9  125.79
 17.1856  15433.6  123.64
 17.3836  14829.8  121.101
 17.5816  14389  119.768
 17.7796  14300.3  119.333
 17.9776  14060.8  119.112
 18.1756  14048.4  117.799
 18.3736  13904  117.687
 18.5716  13693.4  116.548
 18.7696  13777.7  116.494
 18.9676  13397.3  114.683
 19.1656  13492.3  115.629
 19.3636  13447.6  115.639
 19.5616  13153.6  114.539
 19.7596  13448.8  115.23
 19.9576  13727.3  116.473
 20.1556  14364.4  119.675
 20.3536  13449.7  115.18
 20.5516  13026.9  113.798
 20.7496  12678.3  112.111
 20.9476  12581.6  111.534
 21.1456  12711.5  112.431
 21.3436  12358.5  110.813
 21.5416  12316.6  110.619
 21.7396  12319.2  110.48
 21.9376  12127.4  109.39
 22.1356  12280.1  110.23
 22.3336  12260.2  110.399
 22.5316  12191.4  110.183
 22.7296  12348.3  110.264
 22.9276  12077.3  109.701
 23.1256  12386.3  110.587
 23.3236  12357.6  110.998
 23.5216  12246.7  110.164
 23.7196  11843.1  108.496
 23.9176  11988.2  108.7
 24.1156  11758.5  108.125
 24.3136  11435.2  107.384
 24.5116  11426.2  106.877
 24.7096  11140  105.353
 24.9076  10974.5  104.591
 25.1056  10679.9  103.632
 25.3036  10725.3  103.376
 25.5016  10749.3  103.531
 25.6996  10678.6  102.779
 25.8976  10594.7  102.8
 26.0956  10584.5  102.778
 26.2936  10577.1  102.383
 26.4916  10622.8  102.495
 26.6896  10213.7  100.789
 26.8876  10233.3  100.739
 27.0856  10103.2  100.159
 27.2836  10028.2  99.8317
 27.4816  9861.39  98.7748
 27.6796  9771.51  98.6888
 27.8776  9813.6  98.7618
 28.0756  9806.53  99.0045
 28.2736  9728.76  98.2047
 28.4716  9459.91  96.8864
 28.6696  9606.14  97.4815
 28.8676  9516.09  97.3644
 29.0656  9284.52  96.1515
 29.2636  9371.6  96.3918
 29.4616  9263.49  96.0221
 29.6596  9373.44  96.1622
 29.8576  8997.94  94.882
 30.0556  9158.82  95.6032
 30.2536  9221.46  95.7271
 30.4516  9142.59  94.9879
 30.6496  9103.35  94.5152
 30.8476  8952.8  94.1621
 31.0456  9028.57  94.5184
 31.2436  8989.98  93.5981
 31.4416  8873.43  93.1479
 31.6396  8864.53  93.1485
 31.8376  8830.24  92.516
 32.0356  8814.91  92.993
 32.2336  8638.05  91.4696
 32.4316  8659.92  91.9833
 32.6296  8631.37  91.6739
 32.8276  8703.96  91.8338
 33.0256  8598.18  91.3475
 33.2236  8472.96  90.8248
 33.4216  8622.51  91.3302
 33.6196  8549.73  91.2188
 33.8176  8460.44  90.8921
 34.0156  8384.67  90.1175
 34.2136  8395.3  90.2161
 34.4116  8326.7  89.9944
 34.6096  8327.13  89.8788
 34.8076  8096.31  89.0207
 35.0056  8231.77  89.4608
 35.2036  8239.08  89.7042
 35.4016  8236.86  89.6208
 35.5996  8049.06  88.6246
 35.7976  7938.33  88.2738
 35.9956  8212.36  89.4453
 36.1936  8026.32  88.2981
 36.3916  7997.6  88.3078
 36.5896  7995.96  89.2519
 36.7876  7940.16  88.3637
 36.9856  7878.07  88.0438
 37.1836  7843.63  86.9726
 37.3816  7985.24  88.1111
 37.5796  7770.04  88.6005
 37.7776  7717.32  86.718
 37.9756  7742.99  86.7431
 38.1736  7910.57  87.878
 38.3716  7774.74  87.3895
 38.5696  7791.05  87.8431
 38.7676  7571.08  86.1027
 38.9656  7594.65  85.8819
 39.1636  7541.45  85.8442
 39.3616  7669.26  86.4951
 39.5596  7579.92  86.8229
 39.7576  7575.16  86.1861
 39.9556  7618.92  86.0816
 40.1536  7730.1  86.9104
 40.3516  7733.68  87.0415
 40.5496  7675.38  86.8591
 40.7476  7722.6  87.1224
 40.9456  7767.23  87.1392
 41.1436  7762.49  86.8391
 41.3416  7625.68  86.4033
 41.5396  7616.27  86.1583
 41.7376  7620.64  86.445
 41.9356  7544.07  85.8689
 42.1336  7563.94  86.1251
 42.3316  7522.25  86.0876
 42.5296  7585.11  85.9684
 42.7276  7500.82  85.7262
 42.9256  7613.77  86.2425
 43.1236  7462.47  85.4844
 43.3216  7500.46  85.4581
 43.5196  7364.39  84.7388
 43.7176  7445.8  85.5928
 43.9156  7328.42  84.8297
 44.1136  7403.04  84.8217
 44.3116  7367.01  84.6322
 44.5096  7309.43  84.5956
 44.7076  7313.66  84.553
 44.9056  7254.05  84.0858
 45.1036  7175.18  83.2642
 45.3016  7210.3  83.9581
 45.4996  7207.78  83.8832
 45.6976  7066.17  83.2314
 45.8956  7129.56  83.4053
 46.0936  7193.79  83.5407
 46.2916  7094.07  83.1805
 46.4896  7046.82  82.9268
 46.6876  6881.03  82.6416
 46.8856  6852.16  81.8735
 47.0836  6932.2  82.4696
 47.2816  6792.96  81.5232
 47.4796  6723.91  81.206
 47.6776  6825.24  82.7497
 47.8756  6872.49  82.2252
 48.0736  6783.63  82.1123
 48.2716  6634.06  81.0498
 48.4696  6773.3  81.4931
 48.6676  6740.64  81.872
 48.8656  6738.67  81.5931
 49.0636  6773.67  81.7474
 49.2616  6564.99  80.5126
 49.4596  6637.02  80.5349
 49.6576  6558.81  80.2713
 49.8556  6635.53  80.7662
 50.0536  6564.95  80.773
 50.2516  6533.34  80.7021
 50.4496  6574.55  80.6159
 50.6476  6542.15  80.1106
 50.8456  6480.31  79.8192
 51.0436  6309.03  79.184
 51.2416  6427.68  79.6138
 51.4396  6152.11  78.2599
 51.6376  6254.27  78.7346
 51.8356  6296.47  78.6434
 52.0336  6172.7  78.365
 52.2316  6071.76  78.0612
 52.4296  6234.08  78.7963
 52.6276  6100.36  78.0636
 52.8256  6316.97  78.9918
 53.0236  6056.68  77.9548
 53.2216  6049.83  77.9233
 53.4196  6059.9  77.9331
 53.6176  5992.97  77.966
 53.8156  6062.87  78.1005
 54.0136  6164.68  78.9396
 54.2116  6049.3  77.8622
 54.4096  6015.99  77.6868
 54.6076  5958.08  77.6613
 54.8056  6007.88  77.7788
 55.0036  5956.15  77.701
 55.2016  5966.69  77.3799
 55.3996  6010.49  77.7056
 55.5976  5899.04  77.1662
 55.7956  5981.34  77.5154
 55.9936  5887.97  77.0387
 56.1916  5915.82  77.2445
 56.3896  5975.9  77.6268
 56.5876  5904.75  77.6997
 56.7856  5907.45  77.214
 56.9836  5778.13  76.1548
 57.1816  5938.38  77.574
 57.3796  5870.21  76.9004
 57.5776  5947.35  77.3593
 57.7756  5774.05  76.8469
 57.9736  5741.31  76.3151
 58.1716  5820.92  77.078
 58.3696  5933.35  77.5679
 58.5676  5888.29  76.7638
 58.7656  5883.56  77.3945
 58.9636  5996.26  78.1645
 59.1616  5829.31  77.1968
 59.3596  6029.33  77.7854
 59.5576  5912.09  77.0812
 59.7556  5811.67  76.8341
 59.9536  5820.78  76.795
 60.1516  5931.35  78.3624
 60.1996  0.0000000E+00  0.0000000E+00

File: 17_Da_f00037.xye
# /beamlines/bl04/projects/cycle2025-II/20250340211-lsimonelli/DATA/IS17_D/17_Da_f00037.xye : mythproc.py merge -s 0.006 -l 0.5 -f /beamlines/bl04/inhouse/ff/FlatField/ff_20Nov2024rod8mm60s_17keV.raw -b True -c true -o xye /beamlines/bl04/projects/cycle2025-II/20250340211-lsimonelli/DATA/IS17_D/17_Da_00037.dat
# IsMon = [6755016, 6756327, 6757396]  IsPos = [-1.4999, -2.4885, -3.4988]
# Wave = 0.4962  CalPath /beamlines/bl04/projects/cycle2025-II/20250340211-lsimonelli/DATA/Align/Si_Pos1_25keV_f00001.cal
# Date = 2025-09-24_03:52:12 Dt = 4.8000  Bin = 0.0060  <imon> = 6756246 +/- 973 (Min/Max) 6755016 / 6757396
# icurr 249.7356  mocoIn 1.7043E-05  mocoOut 0.7998  i15 7.0729e+06  imon 6.75625e+06  i7 5.0000  iEMpd_timer 4.8000  iEMpd_1 3.3081E-08  iEMpd_2 7.7577E-08  iEMpd_3 1.6436E-08  iEMpd_4 4.7478E-08  iEMhp_timer 4.8000  iEMhp_1 4.8802E-06  iEMhp_2 -2.4200E-08  iEMhp_3 -2.3026E-08  iEMhp_4 -2.1787E-08
#      9776
 1.7416  70265.5  265.177
 1.9396  46245.6  215.412
 2.1376  32488.3  180.542
 2.3356  28970  170.128
 2.5336  27077.9  165.057
 2.7316  25521.9  160.348
 2.9296  24338.8  156.753
 3.1276  23691  154.211
 3.3256  23389.7  152.889
 3.5236  25341.2  159.098
 3.7216  23133.1  153.09
 3.9196  22577.9  150.479
 4.1176  22358.5  149.521
 4.3156  23608.9  153.802
 4.5136  26021.5  160.461
 4.7116  27021.3  164.644
 4.9096  26557.1  162.666
 5.1076  25847.1  161.046
 5.3056  26241  161.998
 5.5036  25913.1  160.964
 5.7016  26309.5  162.074
 5.8996  26992.1  163.385
 6.0976  27626.9  166.721
 6.2956  28198.2  167.771
 6.4936  28883.5  169.001
 6.6916  29201  170.918
 6.8896  29863.4  172.706
 7.0876  30813.3  176.15
 7.2856  30774.1  175.103
 7.4836  31083.9  175.33
 7.6816  31917  178.192
 7.8796  33114  181.49
 8.0776  34353.5  185.819
 8.2756  36146.5  189.229
 8.4736  36564.3  190.129
 8.6716  35994.3  189.271
 8.8696  35905.4  189.511
 9.0676  35211.2  187.043
 9.2656  34099.3  184.74
 9.4636  33386.7  181.243
 9.6616  32591.9  179.828
 9.8596  31580.1  176.499
 10.0576  29936.2  172.491
 10.2556  28814.2  169.657
 10.4536  27890.6  166.529
 10.6516  26992.3  164.011
 10.8496  26226.2  161.089
 11.0476  25557.2  159.004
 11.2456  24874.7  157.427
 11.4436  25041.1  157.146
 11.6416  25893.7  160.155
 11.8396  23710.5  153.458
 12.0376  23716.6  153.099
 12.2356  23128.3  151.624
 12.4336  23190.5  151.361
 12.6316  22893.8  150.657
 12.8296  23116.5  151.03
 13.0276  23647.2  152.929
 13.2256  23776.9  153.704
 13.4236  23564.6  152.79
 13.6216  23450.5  152.44
 13.8196  23484.8  152.321
 14.0176  23025.6  151.107
 14.2156  22646.4  148.921
 14.4136  21667.7  147.011
 14.6116  21161.5  144.511
 14.8096  20636.8  142.694
 15.0076  19574.2  142.724
 15.2056  19116.6  136.945
 15.4036  18309.6  134.834
 15.6016  18115  133.215
 15.7996  17613.3  131.628
 15.9976  16933.5  131.979
 16.1956  16343.5  127.561
 16.3936  16012.6  125.453
 16.5916  15755.1  125.064
 16.7896  15752  125.105
 16.9876  15670.8  126.221
 17.1856  15429.9  123.646
 17.3836  15080.7  122.136
 17.5816  14434.7  119.975
 17.7796  14258.4  119.173
 17.9776  14031.2  118.985
 18.1756  14137.6  118.175
 18.3736  13962.3  117.938
 18.5716  13659.7  116.411
 18.7696  13682.5  116.089
 18.9676  13561.5  115.388
 19.1656  13484.9  115.597
 19.3636  13310.2  115.054
 19.5616  13322.7  115.272
 19.7596  13482  115.371
 19.9576  13686  116.294
 20.1556  14391.1  119.784
 20.3536  13487.9  115.347
 20.5516  12945.2  113.441
 20.7496  12692.9  112.273
 20.9476  12492.3  111.133
 21.1456  12763.2  112.661
 21.3436  12600.1  111.89
 21.5416  12305.2  110.576
 21.7396  12259.4  110.217
 21.9376  12237.7  109.887
 22.1356  12408.1  110.776
 22.3336  12386.9  110.952
 22.5316  12275.4  110.561
 22.7296  12349.8  110.263
 22.9276  12197.8  110.243
 23.1256  12423.8  110.74
 23.3236  12169  110.153
 23.5216  12071.2  109.367
 23.7196  11916.3  108.608
 23.9176  11965.4  108.602
 24.1156  11855.5  108.561
 24.3136  11482.2  107.621
 24.5116  11585.4  107.635
 24.7096  11149.1  105.41
 24.9076  10974  104.604
 25.1056  10840.8  104.149
 25.3036  10675.2  103.132
 25.5016  10689.7  103.241
 25.6996  10587.9  102.341
 25.8976  10477.5  102.23
 26.0956  10547.9  102.591
 26.2936  10613.1  102.563
 26.4916  10679.5  102.768
 26.6896  10344.2  101.428
 26.8876  10169.3  100.423
 27.0856  10292.2  101.035
 27.2836  10016.1  99.6066
 27.4816  9906.72  98.9984
 27.6796  9933.02  99.5009
 27.8776  9908.81  99.237
 28.0756  9829.3  99.117
 28.2736  9752.5  98.319
 28.4716  9524.98  97.2168
 28.6696  9688.13  97.8976
 28.8676  9382.92  96.6806
 29.0656  9339.69  96.4315
 29.2636  9331.75  96.1121
 29.4616  9195.23  95.6626
 29.6596  9442.79  96.5105
 29.8576  9242.47  96.1577
 30.0556  9255.55  96.1016
 30.2536  9337.85  96.3265
 30.4516  9033.41  94.4111
 30.6496  9246.94  95.2489
 30.8476  9093.63  94.8895
 31.0456  8948.81  94.0955
 31.2436  8992.78  93.6106
 31.4416  8913.17  93.3695
 31.6396  8966.06  93.6935
 31.8376  8866.39  92.7247
 32.0356  8833.18  93.1076
 32.2336  8801.94  92.3453
 32.4316  8744.18  92.4324
 32.6296  8607.63  91.4852
 32.8276  8753.28  92.0958
 33.0256  8444.84  90.5343
 33.2236  8542.87  91.205
 33.4216  8598.96  91.1909
 33.6196  8669.23  91.857
 33.8176  8505.39  91.138
 34.0156  8435.97  90.4045
 34.2136  8336.27  89.9
 34.4116  8310.24  89.9072
 34.6096  8312.68  89.7938
 34.8076  8213.66  89.6669
 35.0056  8339.04  90.0427
 35.2036  8279.09  89.9211
 35.4016  8204.36  89.4424
 35.5996  8094.15  88.8735
 35.7976  8098.47  89.161
 35.9956  8233.6  89.5507
 36.1936  8126.33  88.8457
 36.3916  8024.14  88.4567
 36.5896  7935.12  89.3735
 36.7876  8026.62  88.8381
 36.9856  7948.89  88.4338
 37.1836  8029.18  87.9916
 37.3816  7951.31  87.9209
 37.5796  7801.21  88.7798
 37.7776  7743.97  86.864
 37.9756  7794.81  87.0288
 38.1736  7796.01  87.232
 38.3716  7790.08  87.4669
 38.5696  7770.75  87.7334
 38.7676  7526.6  85.8618
 38.9656  7621  86.0415
 39.1636  7636.71  86.3626
 39.3616  7593.31  86.0759
 39.5596  7575.86  86.8028
 39.7576  7605.08  86.3519
 39.9556  7675.29  86.3969
 40.1536  7739.74  86.9614
 40.3516  7704.55  86.7738
 40.5496  7800.79  87.3656
 40.7476  7760.4  87.3521
 40.9456  7802.73  87.3418
 41.1436  7713.74  86.5694
 41.3416  7660.29  86.5918
 41.5396  7626.22  86.2152
 41.7376  7594.68  86.2969
 41.9356  7580.93  86.0815
 42.1336  7520.48  85.8827
 42.3316  7547.12  86.2276
 42.5296  7592.08  86.0096
 42.7276  7498.18  85.7104
 42.9256  7558.99  85.9254
 43.1236  7512.7  85.7726
 43.3216  7539.85  85.7816
 43.5196  7409.24  85.0006
 43.7176  7449.07  85.6135
 43.9156  7359.55  85.0087
 44.1136  7354.84  84.5409
 44.3116  7369.25  84.6341
 44.5096  7199.58  83.9575
 44.7076  7420.03  85.1644
 44.9056  7261.39  84.1224
 45.1036  7156.49  83.1478
 45.3016  7120.32  83.4267
 45.4996  7037.54  82.8799
 45.6976  7051.28  83.1313
 45.8956  7170.54  83.6548
 46.0936  7204.32  83.8563
 46.2916  7079.78  83.1091
 46.4896  7193.72  83.8032
 46.6876  7090.98  83.8938
 46.8856  6910.23  82.1051
 47.0836  6842.57  81.9413
 47.2816  6832.44  81.7604
 47.4796  6996.27  82.845
 47.6776  6774.41  82.4428
 47.8756  6798.91  81.7823
 48.0736  6840.1  82.472
 48.2716  6694.64  81.413
 48.4696  6752.27  81.3701
 48.6676  6772.98  82.0642
 48.8656  6745.82  81.6323
 49.0636  6759.31  81.6658
 49.2616  6563.29  80.5049
 49.4596  6648.59  80.6085
 49.6576  6585.57  80.4471
 49.8556  6600.7  80.5547
 50.0536  6630.03  81.1691
 50.2516  6502.96  80.4953
 50.4496  6519.54  80.2806
 50.6476  6572.49  80.3004
 50.8456  6504.94  79.9778
 51.0436  6426.35  79.9141
 51.2416  6346.77  79.1022
 51.4396  6277.72  79.0575
 51.6376  6290.86  78.9681
 51.8356  6248.44  78.34
 52.0336  6282.53  79.0549
 52.2316  6200.67  78.8768
 52.4296  6253.73  78.9147
 52.6276  6226.56  78.8567
 52.8256  6261.27  78.642
 53.0236  6134.08  78.4641
 53.2216  6114.44  78.3695
 53.4196  6021.25  77.6983
 53.6176  6042.95  78.3029
 53.8156  6100.53  78.3474
 54.0136  6113.52  78.6082
 54.2116  6035.41  77.7728
 54.4096  6056.25  77.9576
 54.6076  6056.59  78.2974
 54.8056  5983.55  77.6145
 55.0036  6060.07  78.502
 55.2016  6043.9  77.9506
 55.3996  6000.75  77.6405
 55.5976  5974.31  77.6573
 55.7956  5937.36  77.2317
 55.9936  5862.49  76.8728
 56.1916  5984.41  77.6843
 56.3896  5912.75  77.2138
 56.5876  5824.33  77.167
 56.7856  5896.72  77.1266
 56.9836  5803.05  76.3135
 57.1816  5992.53  77.9279
 57.3796  5891.69  77.0736
 57.5776  5947.29  77.3554
 57.7756  5865.29  77.4516
 57.9736  5853.33  77.0556
 58.1716  5960.64  77.9875
 58.3696  5858.33  77.0794
 58.5676  5920.3  76.9554
 58.7656  5901.89  77.5075
 58.9636  6152.47  79.1723
 59.1616  5945.55  77.9474
 59.3596  5975.71  77.4174
 59.5576  6030.26  77.8263
 59.7556  5915.8  77.4981
 59.9536  5842.26  76.9155
 60.1516  5924.23  78.2938
 60.1996  0.0000000E+00  0.0000000E+00