Folder: echemistpy/docs/examples/opeando_xrd/IS17_D/Data/IS17_D_fresh (part 2)

File: 17_D_fresh_f00006.xye
# /beamlines/bl04/projects/cycle2025-II/20250340211-lsimonelli/DATA/IS17_D_fresh/17_D_fresh_f00006.xye : mythproc.py merge -s 0.006 -l 0.5 -f /beamlines/bl04/inhouse/ff/FlatField/ff_20Nov2024rod8mm60s_17keV.raw -b True -c true -o xye /beamlines/bl04/projects/cycle2025-II/20250340211-lsimonelli/DATA/IS17_D_fresh/17_D_fresh_00006.dat
# IsMon = [6769041, 6774065, 6769917]  IsPos = [-1.4999, -2.4884, -3.4988]
# Wave = 0.4962  CalPath /beamlines/bl04/projects/cycle2025-II/20250340211-lsimonelli/DATA/Align/Si_Pos1_25keV_f00001.cal
# Date = 2025-09-24_14:47:44 Dt = 4.8000  Bin = 0.0060  <imon> = 6771008 +/- 2191 (Min/Max) 6769041 / 6774065
# icurr 250.7834  mocoIn 1.7104E-05  mocoOut 0.8022  i15 7.08672e+06  imon 6.77101e+06  i7 9.0000  iEMpd_timer 4.8000  iEMpd_1 3.4055E-08  iEMpd_2 7.7806E-08  iEMpd_3 1.5672E-08  iEMpd_4 4.7496E-08  iEMhp_timer 4.8000  iEMhp_1 4.8978E-06  iEMhp_2 -2.6433E-08  iEMhp_3 -2.4296E-08  iEMhp_4 -2.3100E-08
#      9776
 1.7416  67624.8  260.16
 1.9396  43351.6  208.566
 2.1376  30701  175.515
 2.3356  27924.7  167.04
 2.5336  27553.1  166.509
 2.7316  24911.1  158.4
 2.9296  23704.6  154.683
 3.1276  23038  152.054
 3.3256  22999.4  151.588
 3.5236  24775.9  157.142
 3.7216  22583  151.26
 3.9196  22764.2  151.104
 4.1176  22218  149.048
 4.3156  23693  154.073
 4.5136  27036.7  163.552
 4.7116  27522.1  166.165
 4.9096  27031.7  164.11
 5.1076  26379.9  162.699
 5.3056  27000.2  164.334
 5.5036  26783.2  163.539
 5.7016  27167.3  164.692
 5.8996  27954.9  166.266
 6.0976  28788.5  170.193
 6.2956  29266.8  170.918
 6.4936  30370.6  173.306
 6.6916  30648.3  175.097
 6.8896  31872.5  178.421
 7.0876  32749.5  181.596
 7.2856  32783.2  180.729
 7.4836  33727  182.63
 7.6816  34471.2  185.182
 7.8796  36319.2  190.061
 8.0776  41020.7  203.047
 8.2756  41070.9  201.709
 8.4736  40982.7  201.287
 8.6716  40731.8  201.321
 8.8696  40965.1  202.429
 9.0676  40574.6  200.802
 9.2656  38367.7  195.983
 9.4636  37919.4  193.163
 9.6616  37210.8  192.169
 9.8596  35882.4  188.119
 10.0576  34539.3  185.253
 10.2556  32835.6  181.074
 10.4536  37250.7  192.436
 10.6516  38830  196.669
 10.8496  30368.1  173.346
 11.0476  30232  172.98
 11.2456  33653.8  183.095
 11.4436  29146.6  169.54
 11.6416  28279.5  167.378
 11.8396  26884.6  163.407
 12.0376  26694.3  162.45
 12.2356  28932.8  169.543
 12.4336  27433.6  164.629
 12.6316  25845.3  160.053
 12.8296  26707.6  162.333
 13.0276  27240.2  164.126
 13.2256  26572.1  162.493
 13.4236  26981.1  163.481
 13.6216  26631.2  162.452
 13.8196  28053.3  166.481
 14.0176  26392.8  161.769
 14.2156  25667.2  158.543
 14.4136  24329.6  155.767
 14.6116  24123.7  154.291
 14.8096  23211.3  151.337
 15.0076  22319.4  152.382
 15.2056  21778  146.16
 15.4036  21044.5  144.557
 15.6016  20452.7  141.547
 15.7996  20176.7  140.883
 15.9976  18790.5  139.021
 16.1956  18174.2  134.531
 16.3936  17881.5  132.59
 16.5916  17904.2  133.33
 16.7896  17748.8  132.815
 16.9876  17654  133.968
 17.1856  17503  131.668
 17.3836  16469.5  127.623
 17.5816  16570.2  128.516
 17.7796  16397.9  127.78
 17.9776  16693  129.78
 18.1756  17694.4  132.194
 18.3736  18158.7  134.487
 18.5716  15826.3  125.3
 18.7696  16042.5  125.705
 18.9676  15282.5  122.491
 19.1656  15452.1  123.752
 19.3636  15334.2  123.48
 19.5616  15390.4  123.892
 19.7596  15107.9  122.129
 19.9576  15854.6  125.157
 20.1556  14952.9  122.096
 20.3536  15011.5  121.685
 20.5516  14577  120.381
 20.7496  14351.5  119.374
 20.9476  14635.7  120.295
 21.1456  14945.6  121.908
 21.3436  14242  118.958
 21.5416  14086.8  118.303
 21.7396  13879.1  117.263
 21.9376  14095.6  117.933
 22.1356  14360.3  119.163
 22.3336  14424.7  119.741
 22.5316  14188.3  118.857
 22.7296  13885  116.913
 22.9276  13692.3  116.8
 23.1256  14332  118.948
 23.3236  13633.2  116.594
 23.5216  13433.5  115.391
 23.7196  13449.5  115.395
 23.9176  13310.9  114.544
 24.1156  13131  114.265
 24.3136  13065.1  114.784
 24.5116  13044.4  114.2
 24.7096  12725.8  112.603
 24.9076  12476.9  111.531
 25.1056  12177.6  110.659
 25.3036  12234.2  110.401
 25.5016  12316.8  110.818
 25.6996  12138.9  109.579
 25.8976  12479.1  111.56
 26.0956  12258.1  110.6
 26.2936  11983.9  108.977
 26.4916  11972.8  108.812
 26.6896  11628.8  107.536
 26.8876  11543  106.994
 27.0856  11687.1  107.712
 27.2836  11358.2  106.07
 27.4816  11529  106.792
 27.6796  11190.3  105.609
 27.8776  11494.8  106.883
 28.0756  11159.9  105.608
 28.2736  11201.4  105.375
 28.4716  10855.1  103.777
 28.6696  10961.7  104.13
 28.8676  10750.5  103.476
 29.0656  10640.8  102.933
 29.2636  10687  102.934
 29.4616  10470.4  102.077
 29.6596  10711.4  102.788
 29.8576  10387.8  101.936
 30.0556  10691.9  103.289
 30.2536  10471.6  102.002
 30.4516  10421.3  101.414
 30.6496  10246.8  100.28
 30.8476  10208.8  100.553
 31.0456  10147  100.207
 31.2436  9976.17  98.6049
 31.4416  9972.07  98.747
 31.6396  10620.2  101.962
 31.8376  10192  99.4124
 32.0356  10027.8  99.1975
 32.2336  9927.01  98.057
 32.4316  9860.6  98.1501
 32.6296  9687.79  97.1197
 32.8276  9798.6  97.4354
 33.0256  9697.52  97.0132
 33.2236  9646.37  96.9086
 33.4216  9577.43  96.2395
 33.6196  9607.73  96.6953
 33.8176  9485.3  96.26
 34.0156  9402.2  95.4428
 34.2136  9292.67  94.9181
 34.4116  9230.6  94.7559
 34.6096  9228.11  94.6171
 34.8076  9224.9  95.0192
 35.0056  9258  94.8687
 35.2036  9177.11  94.676
 35.4016  9086.01  94.1261
 35.5996  8935.54  93.3801
 35.7976  8833.14  93.1266
 35.9956  9129.94  94.3109
 36.1936  8917.94  93.0729
 36.3916  8787.56  92.5697
 36.5896  9000.62  94.6982
 36.7876  8767.55  92.8436
 36.9856  8503.46  91.4545
 37.1836  8563.91  90.8677
 37.3816  8642.88  91.6693
 37.5796  8568.49  93.0487
 37.7776  8520.74  91.1259
 37.9756  8585.56  91.3528
 38.1736  8687.28  92.0941
 38.3716  8440.43  91.0561
 38.5696  8339.05  90.8822
 38.7676  8257.8  89.9297
 38.9656  8449.09  90.5846
 39.1636  8332.66  90.2362
 39.3616  8318.36  90.0797
 39.5596  8106.48  89.7877
 39.7576  8150.74  89.4095
 39.9556  8275.55  89.7234
 40.1536  8321.67  90.1753
 40.3516  8295.09  90.0333
 40.5496  8232.62  89.9657
 40.7476  8220.77  89.9012
 40.9456  8231.19  89.7096
 41.1436  8240.93  89.4815
 41.3416  8115.23  89.1323
 41.5396  8122.02  88.9742
 41.7376  8168.99  89.494
 41.9356  8056.23  88.7361
 42.1336  8119.31  89.2369
 42.3316  8101.47  89.3374
 42.5296  8079.81  88.7288
 42.7276  8118.19  89.1834
 42.9256  8026.21  88.5429
 43.1236  7947.72  88.2197
 43.3216  7962.71  88.0537
 43.5196  7857.66  87.5304
 43.7176  7851.87  87.8905
 43.9156  8022.63  88.7416
 44.1136  7854.95  87.3655
 44.3116  7956.69  87.9496
 44.5096  7860.73  87.7233
 44.7076  7939.84  88.0923
 44.9056  7742.55  86.8596
 45.1036  7742.72  86.4898
 45.3016  7566.05  86.0071
 45.4996  7646.1  86.3898
 45.6976  7574.3  86.1542
 45.8956  7646.33  86.3715
 46.0936  7521.47  85.6753
 46.2916  7536.08  85.7354
 46.4896  7657.71  86.4637
 46.6876  7583.07  86.7622
 46.8856  7663.43  86.4737
 47.0836  7440.95  85.4528
 47.2816  7517.51  85.7522
 47.4796  7450.45  85.4941
 47.6776  7448.46  86.4466
 47.8756  7493.02  85.8378
 48.0736  7486.94  86.2849
 48.2716  7500.79  86.1741
 48.4696  7499.06  85.7588
 48.6676  7504.3  86.3868
 48.8656  7540.08  86.3241
 49.0636  7384.02  85.3685
 49.2616  7431.17  85.6631
 49.4596  7395.44  85.018
 49.6576  7376.6  85.1459
 49.8556  7461.11  85.6196
 50.0536  7320.05  85.2801
 50.2516  7406.01  85.9304
 50.4496  7394.06  85.4838
 50.6476  7360.8  84.9724
 50.8456  7291.39  84.6715
 51.0436  7259.55  84.9346
 51.2416  7308.79  84.8901
 51.4396  7190.46  84.6044
 51.6376  7289.15  84.9968
 51.8356  7312.21  84.7452
 52.0336  7042.85  83.7078
 52.2316  7053.84  84.1239
 52.4296  7119.16  84.197
 52.6276  7143.38  84.4589
 52.8256  7181.21  84.2285
 53.0236  7102.45  84.4196
 53.2216  6999.74  83.8347
 53.4196  7072.83  84.2056
 53.6176  7024.26  84.4013
 53.8156  6994.89  83.8917
 54.0136  7094.07  84.672
 54.2116  7065.15  84.1468
 54.4096  7112.26  84.4646
 54.6076  6994.64  84.1443
 54.8056  6934.13  83.5559
 55.0036  6976.54  84.2276
 55.2016  6853.1  82.9993
 55.3996  7005.79  83.8882
 55.5976  6912.48  83.5282
 55.7956  6984.49  83.7682
 55.9936  6834.02  82.9989
 56.1916  6864.39  83.1978
 56.3896  6954.64  83.737
 56.5876  6812.28  83.4526
 56.7856  6772.89  82.6619
 56.9836  6746.19  82.2771
 57.1816  6887.33  83.5453
 57.3796  6866.25  83.1954
 57.5776  6886.29  83.2545
 57.7756  6699.58  82.7732
 57.9736  6725.41  82.5962
 58.1716  6894.96  83.8791
 58.3696  6981.05  84.1339
 58.5676  6963.36  83.4567
 58.7656  6901.03  83.8132
 58.9636  6865.04  83.6264
 59.1616  6917.1  84.0849
 59.3596  6922.88  83.3411
 59.5576  7084.59  84.37
 59.7556  6853.49  83.4281
 59.9536  7110.2  84.8665
 60.1516  6838.51  84.1325
 60.1996  0.0000000E+00  0.0000000E+00

File: 17_D_fresh_f00007.xye
# /beamlines/bl04/projects/cycle2025-II/20250340211-lsimonelli/DATA/IS17_D_fresh/17_D_fresh_f00007.xye : mythproc.py merge -s 0.006 -l 0.5 -f /beamlines/bl04/inhouse/ff/FlatField/ff_20Nov2024rod8mm60s_17keV.raw -b True -c true -o xye /beamlines/bl04/projects/cycle2025-II/20250340211-lsimonelli/DATA/IS17_D_fresh/17_D_fresh_00007.dat
# IsMon = [6793284, 6792522, 6793006]  IsPos = [-1.4999, -2.4884, -3.4988]
# Wave = 0.4962  CalPath /beamlines/bl04/projects/cycle2025-II/20250340211-lsimonelli/DATA/Align/Si_Pos1_25keV_f00001.cal
# Date = 2025-09-24_18:59:02 Dt = 4.8000  Bin = 0.0060  <imon> = 6792937 +/- 315 (Min/Max) 6792522 / 6793284
# icurr 252.7584  mocoIn 1.7235E-05  mocoOut 0.8083  i15 7.10961e+06  imon 6.79294e+06  i7 8.0000  iEMpd_timer 4.8000  iEMpd_1 3.3683E-08  iEMpd_2 7.8017E-08  iEMpd_3 1.5672E-08  iEMpd_4 4.7157E-08  iEMhp_timer 4.8000  iEMhp_1 4.9357E-06  iEMhp_2 -2.6159E-08  iEMhp_3 -2.4284E-08  iEMhp_4 -2.1365E-08
#      9776
 1.7416  69479.6  263.659
 1.9396  44964.5  212.377
 2.1376  31802  178.605
 2.3356  28602.9  169.027
 2.5336  26767.4  164.089
 2.7316  25783.7  161.156
 2.9296  24757.7  158.089
 3.1276  24232  155.942
 3.3256  24299  155.828
 3.5236  25828.4  160.463
 3.7216  23821.6  155.353
 3.9196  23510.9  153.557
 4.1176  23398.4  152.95
 4.3156  24858.8  157.819
 4.5136  27436.9  164.767
 4.7116  28367  168.697
 4.9096  27923.5  166.794
 5.1076  27688.5  166.678
 5.3056  28219.7  168
 5.5036  28375  168.339
 5.7016  28846.1  169.7
 5.8996  29410.4  170.547
 6.0976  30168.6  174.213
 6.2956  30868.3  175.538
 6.4936  31571.3  176.692
 6.6916  31896  178.629
 6.8896  32589.4  180.417
 7.0876  33978.3  184.971
 7.2856  33726.7  183.31
 7.4836  34453.4  184.58
 7.6816  35428.9  187.74
 7.8796  37072.8  192.026
 8.0776  38722.2  197.293
 8.2756  40625.6  200.626
 8.4736  41284.4  202.048
 8.6716  41222.1  202.555
 8.8696  40618.5  201.557
 9.0676  39879.5  199.044
 9.2656  38722.8  196.855
 9.4636  38650.7  195.004
 9.6616  37497.9  192.886
 9.8596  36692.7  190.237
 10.0576  34716.4  185.74
 10.2556  33563  183.087
 10.4536  32407  179.492
 10.6516  31951.1  178.424
 10.8496  30740.2  174.397
 11.0476  30244.8  173.016
 11.2456  29381.2  171.093
 11.4436  29196.7  169.686
 11.6416  28870.4  169.114
 11.8396  27126.6  164.132
 12.0376  27242.9  164.107
 12.2356  26771.9  163.105
 12.4336  26559.3  161.974
 12.6316  26282.7  161.4
 12.8296  26581.5  161.954
 13.0276  27236.7  164.121
 13.2256  27207.1  164.417
 13.4236  27140.7  163.969
 13.6216  26998  163.56
 13.8196  26996.9  163.31
 14.0176  26753.4  162.874
 14.2156  25891  159.23
 14.4136  24824.7  157.352
 14.6116  24307.7  154.876
 14.8096  23819.6  153.304
 15.0076  22395.3  152.626
 15.2056  22374  148.158
 15.4036  21177  145.024
 15.6016  20970.1  143.338
 15.7996  20060.8  140.483
 15.9976  19313.9  140.954
 16.1956  18629.6  136.189
 16.3936  18294.3  134.094
 16.5916  17832.6  133.04
 16.7896  17883.5  133.302
 16.9876  17844.5  134.686
 17.1856  17596  132.033
 17.3836  17160.5  130.279
 17.5816  16543  128.418
 17.7796  16613.1  128.627
 17.9776  16230.3  127.961
 18.1756  16471.1  127.552
 18.3736  16546.1  128.389
 18.5716  16159.4  126.612
 18.7696  15998.9  125.529
 18.9676  15568.5  123.627
 19.1656  15605.9  124.358
 19.3636  15524.3  124.247
 19.5616  15467.1  124.195
 19.7596  15504.6  123.711
 19.9576  15771.4  124.83
 20.1556  15669.9  124.996
 20.3536  15127.6  122.153
 20.5516  14903.6  121.719
 20.7496  14603.9  120.427
 20.9476  14386.7  119.265
 21.1456  14748.1  121.107
 21.3436  14400.8  119.612
 21.5416  14286.3  119.138
 21.7396  14227.4  118.72
 21.9376  14172.3  118.25
 22.1356  14027.5  117.777
 22.3336  14064.6  118.254
 22.5316  14160.2  118.747
 22.7296  14064.8  117.676
 22.9276  14084.4  118.471
 23.1256  14121.8  118.074
 23.3236  13719  116.945
 23.5216  13652  116.306
 23.7196  13632.5  116.171
 23.9176  13394.6  114.898
 24.1156  13379.1  115.324
 24.3136  12885.5  113.998
 24.5116  13261.2  115.153
 24.7096  12629.3  112.185
 24.9076  12394.9  111.15
 25.1056  12178.7  110.668
 25.3036  12276.2  110.604
 25.5016  12151.4  110.069
 25.6996  12115.5  109.475
 25.8976  11848.5  108.706
 26.0956  12042.2  109.622
 26.2936  12061.5  109.337
 26.4916  12108.4  109.428
 26.6896  11729  108
 26.8876  11506.2  106.818
 27.0856  11591.4  107.275
 27.2836  11384.3  106.194
 27.4816  11258.8  105.524
 27.6796  11269.6  105.984
 27.8776  11108.5  105.067
 28.0756  11235.1  105.971
 28.2736  11034.4  104.581
 28.4716  10898  103.986
 28.6696  10929.2  103.979
 28.8676  10765  103.555
 29.0656  10645.2  102.955
 29.2636  10708.7  103.045
 29.4616  10597.3  102.703
 29.6596  10500.9  101.781
 29.8576  10418.1  102.094
 30.0556  10508.9  102.404
 30.2536  10583  102.553
 30.4516  10248.9  100.559
 30.6496  10212.6  100.099
 30.8476  10304.2  101.009
 31.0456  10199.9  100.454
 31.2436  10150.1  99.4441
 31.4416  10193.4  99.839
 31.6396  10305.1  100.435
 31.8376  10159.8  99.2613
 32.0356  10060.1  99.362
 32.2336  10006  98.4482
 32.4316  9904.73  98.3752
 32.6296  9770.97  97.535
 32.8276  9840.85  97.6493
 33.0256  9626.87  96.65
 33.2236  9682.68  97.0927
 33.4216  9605.83  96.3779
 33.6196  9614.02  96.7313
 33.8176  9547  96.5728
 34.0156  9483.49  95.852
 34.2136  9425.81  95.5852
 34.4116  9387.29  95.5622
 34.6096  9259.79  94.7776
 34.8076  9233.84  95.0685
 35.0056  9170.58  94.4192
 35.2036  9168.12  94.6288
 35.4016  9135.76  94.3837
 35.5996  9052.02  93.9867
 35.7976  8876.26  93.3578
 35.9956  9062.78  93.9641
 36.1936  8911.29  93.0379
 36.3916  8750.08  92.3736
 36.5896  8851.67  93.9163
 36.7876  8715.36  92.5637
 36.9856  8504.97  91.4756
 37.1836  8602.97  91.0847
 37.3816  8567.03  91.2691
 37.5796  8582.68  93.1261
 37.7776  8563.92  91.3438
 37.9756  8469.02  90.718
 38.1736  8618.08  91.7129
 38.3716  8413.6  90.8939
 38.5696  8376.74  91.0872
 38.7676  8257.47  89.9299
 38.9656  8233.06  89.4215
 39.1636  8358.52  90.3713
 39.3616  8294.9  89.9677
 39.5596  8093.89  89.7125
 39.7576  8193.78  89.6451
 39.9556  8200.36  89.3126
 40.1536  8340.99  90.2791
 40.3516  8185.26  89.4413
 40.5496  8226.99  89.9361
 40.7476  8297.86  90.3308
 40.9456  8233.66  89.7246
 41.1436  8252.81  89.5441
 41.3416  8189.77  89.5388
 41.5396  8204.76  89.4292
 41.7376  8206.8  89.7092
 41.9356  8051.33  88.7094
 42.1336  8078.14  89.0069
 42.3316  8002.15  88.7903
 42.5296  8045.28  88.5368
 42.7276  8013.51  88.6073
 42.9256  8115.23  89.0304
 43.1236  7984.09  88.4226
 43.3216  7995.81  88.2321
 43.5196  7843.61  87.4548
 43.7176  7873.73  88.0202
 43.9156  7878.5  87.9535
 44.1136  7755.43  86.8177
 44.3116  7897.13  87.6171
 44.5096  7845.9  87.6512
 44.7076  8010.59  88.489
 44.9056  7779.82  87.0646
 45.1036  7784.79  86.7146
 45.3016  7554.98  85.9294
 45.4996  7554.49  85.8545
 45.6976  7548.61  85.9966
 45.8956  7604.04  86.1391
 46.0936  7483.15  85.4449
 46.2916  7628.93  86.267
 46.4896  7602.62  86.1542
 46.6876  7387.4  85.642
 46.8856  7540.9  85.7774
 47.0836  7476.59  85.6526
 47.2816  7538.2  85.8761
 47.4796  7586.38  86.2578
 47.6776  7433.75  86.3592
 47.8756  7587.73  86.3794
 48.0736  7453.42  86.0912
 48.2716  7415.14  85.6817
 48.4696  7545.49  86.028
 48.6676  7522.56  86.4942
 48.8656  7441.77  85.7584
 49.0636  7343.06  85.1309
 49.2616  7379.01  85.3644
 49.4596  7325.43  84.6194
 49.6576  7365.32  85.0765
 49.8556  7382.15  85.1585
 50.0536  7458.55  86.0875
 50.2516  7281.45  85.1892
 50.4496  7392.89  85.4756
 50.6476  7403.26  85.2234
 50.8456  7410.78  85.3715
 51.0436  7307.16  85.2195
 51.2416  7413.21  85.4948
 51.4396  7174.07  84.5122
 51.6376  7313.99  85.1532
 51.8356  7353.07  84.99
 52.0336  7022.95  83.5788
 52.2316  7063.85  84.1759
 52.4296  7159.03  84.4232
 52.6276  7135.91  84.4082
 52.8256  7104  83.756
 53.0236  7032.22  84.0009
 53.2216  7023.41  83.9902
 53.4196  6993.3  83.7348
 53.6176  6953.92  83.9874
 53.8156  6976.18  83.7827
 54.0136  6967.23  83.9009
 54.2116  6895.17  83.126
 54.4096  7018.29  83.9136
 54.6076  6973.74  84.0193
 54.8056  6814.65  82.8359
 55.0036  6975.63  84.2223
 55.2016  6844.76  82.9451
 55.3996  6893.53  83.2165
 55.5976  6864.52  83.2279
 55.7956  6926.38  83.4144
 55.9936  6868.35  83.2091
 56.1916  6838.33  83.0399
 56.3896  6966.9  83.8147
 56.5876  6888.33  83.9116
 56.7856  6829.31  83.0077
 56.9836  6681.91  81.8861
 57.1816  6897.42  83.5999
 57.3796  6863.98  83.187
 57.5776  6847.45  83.0178
 57.7756  6798.74  83.3804
 57.9736  6853.68  83.3785
 58.1716  6846.8  83.5838
 58.3696  6832.43  83.2474
 58.5676  7014.58  83.7878
 58.7656  6992.54  84.375
 58.9636  6956.29  84.1845
 59.1616  6909.88  84.0493
 59.3596  6929.57  83.3739
 59.5576  6950.99  83.5635
 59.7556  6764.67  82.8786
 59.9536  6881.9  83.4857
 60.1516  6725.25  83.4258
 60.1996  0.0000000E+00  0.0000000E+00