Folder: echemistpy/docs/examples/opeando_xrd/IS17_D/Data/IS17_D (part 116)

File: 17_Db_f00143.xye
# /beamlines/bl04/projects/cycle2025-II/20250340211-lsimonelli/DATA/IS17_D/17_Db_f00143.xye : mythproc.py merge -s 0.006 -l 0.5 -f /beamlines/bl04/inhouse/ff/FlatField/ff_20Nov2024rod8mm60s_17keV.raw -b True -c true -o xye /beamlines/bl04/projects/cycle2025-II/20250340211-lsimonelli/DATA/IS17_D/17_Db_00143.dat
# IsMon = [6740852, 6742125, 6745801]  IsPos = [-1.4999, -2.4884, -3.4988]
# Wave = 0.4962  CalPath /beamlines/bl04/projects/cycle2025-II/20250340211-lsimonelli/DATA/Align/Si_Pos1_25keV_f00001.cal
# Date = 2025-09-25_09:33:59 Dt = 4.8000  Bin = 0.0060  <imon> = 6742926 +/- 2098 (Min/Max) 6740852 / 6745801
# icurr 249.3817  mocoIn 1.7014E-05  mocoOut 0.7980  i15 7.06856e+06  imon 6.74293e+06  i7 3.0000  iEMpd_timer 4.8000  iEMpd_1 3.4052E-08  iEMpd_2 7.8031E-08  iEMpd_3 1.9083E-08  iEMpd_4 4.7990E-08  iEMhp_timer 4.8000  iEMhp_1 4.8721E-06  iEMhp_2 -2.5677E-08  iEMhp_3 -2.4259E-08  iEMhp_4 -2.1587E-08
#      9776
 1.7416  69213.6  263.201
 1.9396  48615.8  220.866
 2.1376  35607.8  189.023
 2.3356  31792.6  178.235
 2.5336  29676.6  172.807
 2.7316  27221  165.613
 2.9296  25918.4  161.755
 3.1276  25236.8  159.156
 3.3256  24660.2  156.985
 3.5236  26216.3  161.664
 3.7216  24201.3  156.571
 3.9196  23628  153.899
 4.1176  23387.4  152.911
 4.3156  24475.2  156.592
 4.5136  26853.4  163.007
 4.7116  27771.9  166.905
 4.9096  27158.5  164.486
 5.1076  26826  164.064
 5.3056  26999.8  164.307
 5.5036  26845.4  163.753
 5.7016  27537.2  165.809
 5.8996  27841.6  165.95
 6.0976  28692.4  169.886
 6.2956  28786.8  169.508
 6.4936  29528.4  170.872
 6.6916  29769.1  172.555
 6.8896  30558.4  174.68
 7.0876  31414  177.854
 7.2856  31457.2  177.016
 7.4836  31874.1  177.535
 7.6816  32886.8  180.852
 7.8796  33607.3  182.817
 8.0776  35261.4  188.253
 8.2756  36747.3  190.79
 8.4736  37186.2  191.741
 8.6716  36512.8  190.63
 8.8696  37614.8  193.984
 9.0676  36801.7  191.193
 9.2656  35680.6  188.961
 9.4636  34763.6  184.965
 9.6616  33876.4  183.323
 9.8596  33638.5  182.137
 10.0576  31412.8  176.686
 10.2556  30810.8  175.44
 10.4536  30207.2  173.313
 10.6516  29759.4  172.23
 10.8496  27953.7  166.321
 11.0476  27276.4  164.317
 11.2456  26865.2  163.603
 11.4436  27018.9  163.237
 11.6416  26273.3  161.319
 11.8396  25065.4  157.76
 12.0376  24465.4  155.499
 12.2356  24283.7  155.346
 12.4336  24258.2  154.81
 12.6316  24013.4  154.29
 12.8296  23947.5  153.682
 13.0276  24415.8  155.392
 13.2256  24435.7  155.822
 13.4236  24350.5  155.323
 13.6216  24685.5  156.392
 13.8196  26929.1  162.813
 14.0176  23786.1  153.583
 14.2156  23441.9  151.494
 14.4136  22418.3  149.546
 14.6116  21923.5  147.076
 14.8096  21166.3  144.489
 15.0076  20239.6  145.199
 15.2056  19156.3  137.075
 15.4036  18501.1  135.54
 15.6016  17979.4  132.712
 15.7996  17547.3  131.365
 15.9976  17245.5  133.126
 16.1956  17025.8  130.154
 16.3936  16811.6  128.53
 16.5916  16557.8  128.194
 16.7896  16428.6  127.758
 16.9876  16339.3  128.877
 17.1856  16215.6  126.767
 17.3836  15509.7  123.885
 17.5816  15325.8  123.631
 17.7796  15369.3  123.73
 17.9776  14984.2  122.938
 18.1756  15136.5  122.3
 18.3736  14741.1  121.174
 18.5716  14479.5  119.851
 18.7696  14470.4  119.373
 18.9676  14473.5  119.186
 19.1656  13999.7  117.795
 19.3636  13997.6  117.989
 19.5616  13928.2  117.858
 19.7596  14307.2  118.854
 19.9576  14592.2  120.08
 20.1556  13882.7  117.637
 20.3536  13646.4  116.021
 20.5516  13439.7  115.586
 20.7496  13105.2  114.067
 20.9476  13185.2  114.177
 21.1456  13078.4  114.034
 21.3436  12827.2  112.886
 21.5416  12743.3  112.533
 21.7396  12506  111.325
 21.9376  12552.6  111.3
 22.1356  12737.1  112.245
 22.3336  12481.9  111.396
 22.5316  12201.4  110.224
 22.7296  12418.5  110.57
 22.9276  12276.9  110.598
 23.1256  12569.2  111.383
 23.3236  12727.9  112.665
 23.5216  12535.7  111.443
 23.7196  12433  110.943
 23.9176  12508.8  111.039
 24.1156  12145.4  109.869
 24.3136  12014.4  110.084
 24.5116  11912.9  109.146
 24.7096  11798.4  108.424
 24.9076  11474.8  106.97
 25.1056  11231.5  106.287
 25.3036  10985.2  104.621
 25.5016  11066.9  105.046
 25.6996  10941.7  104.035
 25.8976  11141.3  105.415
 26.0956  10879.8  104.169
 26.2936  10941.8  104.141
 26.4916  11071.1  104.608
 26.6896  10768.5  103.477
 26.8876  10723.2  103.111
 27.0856  10497.3  102.078
 27.2836  10315.3  101.083
 27.4816  10242  100.657
 27.6796  10307.9  101.345
 27.8776  10525.6  102.274
 28.0756  10082.6  100.381
 28.2736  9993.17  99.5258
 28.4716  9873.43  98.978
 28.6696  9968.17  99.2977
 28.8676  9714.9  98.3757
 29.0656  9732.67  98.4409
 29.2636  9797.05  98.5609
 29.4616  9409.08  96.7653
 29.6596  9433.69  96.463
 29.8576  9212.46  95.9923
 30.0556  9394.73  96.8085
 30.2536  9371.82  96.4989
 30.4516  9603.52  97.3305
 30.6496  9582.51  96.9551
 30.8476  9616.63  97.5578
 31.0456  9473.28  96.8116
 31.2436  9454.79  95.9697
 31.4416  9170.16  94.7123
 31.6396  9505.59  96.4669
 31.8376  9247.17  94.6863
 32.0356  9307.97  95.5547
 32.2336  9368.19  95.2703
 32.4316  8976.59  93.6534
 32.6296  8971.1  93.4555
 32.8276  9102.15  93.924
 33.0256  8894.66  92.9023
 33.2236  8955.28  93.3781
 33.4216  8878.09  92.6499
 33.6196  8892.58  93.0266
 33.8176  8865.86  93.0521
 34.0156  8829.99  92.4878
 34.2136  8838.86  92.5624
 34.4116  8583.55  91.3777
 34.6096  8643.66  91.5754
 34.8076  8398.24  90.6801
 35.0056  8557.11  91.2052
 35.2036  8741.36  92.412
 35.4016  8397.6  90.4827
 35.5996  8491.06  91.0206
 35.7976  8249.75  89.9877
 35.9956  8547.65  91.2517
 36.1936  8470.11  90.6673
 36.3916  8354.4  90.2564
 36.5896  8347.78  91.2129
 36.7876  8132.35  89.4184
 36.9856  8042.56  88.9514
 37.1836  8057.73  88.1434
 37.3816  7999.41  88.1826
 37.5796  8103.81  90.4874
 37.7776  8174.95  89.2499
 37.9756  8171.28  89.1077
 38.1736  8142.12  89.1396
 38.3716  8231.77  89.9025
 38.5696  7884  88.3603
 38.7676  7918.41  88.0716
 38.9656  8022.32  88.269
 39.1636  8036.7  88.6199
 39.3616  7939.15  88.0224
 39.5596  7767.73  87.8877
 39.7576  7805.92  87.4964
 39.9556  7908.31  87.7076
 40.1536  8123.37  89.0873
 40.3516  7957.14  88.1738
 40.5496  7971.94  88.5247
 40.7476  7990.85  88.6322
 40.9456  8097.73  88.9818
 41.1436  8011.23  88.2216
 41.3416  7880.81  87.8323
 41.5396  7883.28  87.6592
 41.7376  7891.16  87.958
 41.9356  7807.28  87.3489
 42.1336  8022.91  88.6965
 42.3316  7809.74  87.7053
 42.5296  7876.38  87.602
 42.7276  7925.96  88.1212
 42.9256  7818.52  87.3933
 43.1236  7844.75  87.6322
 43.3216  7833.3  87.3192
 43.5196  7764.88  87.0026
 43.7176  7763.22  87.3919
 43.9156  7445.38  85.4969
 44.1136  7544.49  85.6191
 44.3116  7636.22  86.1473
 44.5096  7435.49  85.3177
 44.7076  7674  86.6071
 44.9056  7728.95  86.7853
 45.1036  7705.47  86.2709
 45.3016  7564.6  85.9729
 45.4996  7666.21  86.4972
 45.6976  7410.13  85.2128
 45.8956  7613.98  86.2067
 46.0936  7767.55  87.0736
 46.2916  7532.32  85.722
 46.4896  7540.81  85.7992
 46.6876  7470.19  86.1092
 46.8856  7442.98  85.2107
 47.0836  7417.24  85.3206
 47.2816  7405.74  85.1276
 47.4796  7487.64  85.7023
 47.6776  7321.72  85.6995
 47.8756  7427.33  85.4703
 48.0736  7376.71  85.6438
 48.2716  7351.84  85.3165
 48.4696  7380.24  85.0624
 48.6676  7392.4  85.7325
 48.8656  7428.54  85.6639
 49.0636  7437.69  85.6608
 49.2616  7222.15  84.4552
 49.4596  7425.13  85.1813
 49.6576  7329.87  84.865
 49.8556  7321.64  84.8399
 50.0536  7343.23  85.4206
 50.2516  7247.51  84.9976
 50.4496  7249.69  84.6595
 50.6476  7308.23  84.672
 50.8456  7144.71  83.803
 51.0436  7173.33  84.4251
 51.2416  7036.21  83.2838
 51.4396  6846.35  82.5582
 51.6376  7012.21  83.3691
 51.8356  7087.54  83.4321
 52.0336  6908.63  82.8889
 52.2316  7021.61  83.9322
 52.4296  6841.96  82.543
 52.6276  6920.11  83.1273
 52.8256  7037.84  83.38
 53.0236  7056.94  84.1639
 53.2216  7007.4  83.9027
 53.4196  6876.58  82.9997
 53.6176  7004.09  84.3016
 53.8156  7016.05  84.0306
 54.0136  6634.63  81.8725
 54.2116  6891.57  83.0617
 54.4096  6539.47  80.9937
 54.6076  6547.95  81.3971
 54.8056  6559.23  81.2287
 55.0036  6534.67  81.4846
 55.2016  6647.28  81.7028
 55.3996  6369.38  79.9772
 55.5976  6447.73  80.6638
 55.7956  6560.51  81.1745
 55.9936  6541.29  81.1525
 56.1916  6406.04  80.3648
 56.3896  6251.85  79.3764
 56.5876  6320.33  80.3745
 56.7856  6333.58  79.9391
 56.9836  6362.72  79.8923
 57.1816  6420.7  80.6316
 57.3796  6272.34  79.5054
 57.5776  6270.96  79.369
 57.7756  6220.3  79.7389
 57.9736  6161.19  79.0219
 58.1716  6168.77  79.3355
 58.3696  5935.66  77.5873
 58.5676  6092.45  78.0781
 58.7656  5895.84  77.4695
 58.9636  5924.61  77.6753
 59.1616  5995.93  78.287
 59.3596  6016.05  77.6682
 59.5576  5894.39  76.9347
 59.7556  5921.17  77.5234
 59.9536  6034.2  78.1587
 60.1516  5964.24  78.5477
 60.1996  0.0000000E+00  0.0000000E+00

File: 17_Db_f00144.xye
# /beamlines/bl04/projects/cycle2025-II/20250340211-lsimonelli/DATA/IS17_D/17_Db_f00144.xye : mythproc.py merge -s 0.006 -l 0.5 -f /beamlines/bl04/inhouse/ff/FlatField/ff_20Nov2024rod8mm60s_17keV.raw -b True -c true -o xye /beamlines/bl04/projects/cycle2025-II/20250340211-lsimonelli/DATA/IS17_D/17_Db_00144.dat
# IsMon = [6756388, 6752499, 6756473]  IsPos = [-1.5000, -2.4884, -3.4989]
# Wave = 0.4962  CalPath /beamlines/bl04/projects/cycle2025-II/20250340211-lsimonelli/DATA/Align/Si_Pos1_25keV_f00001.cal
# Date = 2025-09-25_09:50:36 Dt = 4.8000  Bin = 0.0060  <imon> = 6755120 +/- 1854 (Min/Max) 6752499 / 6756473
# icurr 250.1805  mocoIn 1.7071E-05  mocoOut 0.8008  i15 7.07788e+06  imon 6.75512e+06  i7 4.3333  iEMpd_timer 4.8000  iEMpd_1 3.5116E-08  iEMpd_2 7.8975E-08  iEMpd_3 1.7665E-08  iEMpd_4 4.9050E-08  iEMhp_timer 4.8000  iEMhp_1 4.8867E-06  iEMhp_2 -2.5047E-08  iEMhp_3 -2.3681E-08  iEMhp_4 -2.0961E-08
#      9776
 1.7416  70520.3  265.608
 1.9396  48957.5  221.59
 2.1376  35662.6  189.121
 2.3356  32044.1  178.894
 2.5336  29908.4  173.438
 2.7316  27189.6  165.509
 2.9296  25804.5  161.396
 3.1276  25444.7  159.794
 3.3256  24810.2  157.468
 3.5236  26117.6  161.362
 3.7216  24219.9  156.633
 3.9196  23787.5  154.441
 4.1176  23640.8  153.734
 4.3156  24528.4  156.763
 4.5136  26845  162.984
 4.7116  27995.7  167.584
 4.9096  27365.8  165.117
 5.1076  26740.3  163.791
 5.3056  26893.9  163.981
 5.5036  27035.3  164.336
 5.7016  27567.9  165.896
 5.8996  28207.6  167.037
 6.0976  28956.8  170.658
 6.2956  28990.8  170.114
 6.4936  29578.8  171.013
 6.6916  29886.7  172.9
 6.8896  30588  174.758
 7.0876  31956.1  179.287
 7.2856  31568.9  177.332
 7.4836  31955  177.76
 7.6816  33001.3  181.165
 7.8796  33581.1  182.763
 8.0776  35059.3  187.735
 8.2756  36892.5  191.189
 8.4736  37547.2  192.694
 8.6716  36983.3  191.871
 8.8696  37799.3  194.448
 9.0676  36675.9  190.858
 9.2656  35704.6  189.019
 9.4636  35018.9  185.641
 9.6616  34192.1  184.167
 9.8596  33558.9  181.924
 10.0576  31564.1  177.12
 10.2556  30911  175.714
 10.4536  30032  172.798
 10.6516  29519.6  171.527
 10.8496  28078.6  166.686
 11.0476  27483.5  164.935
 11.2456  26816.5  163.469
 11.4436  27021.7  163.246
 11.6416  26258.4  161.272
 11.8396  25125.5  157.949
 12.0376  24557.1  155.795
 12.2356  24162.1  154.962
 12.4336  24103.7  154.311
 12.6316  23924.8  153.997
 12.8296  23953.1  153.705
 13.0276  24544.5  155.808
 13.2256  24468.2  155.928
 13.4236  24365.8  155.372
 13.6216  24735.6  156.525
 13.8196  26796.7  162.401
 14.0176  24020  154.244
 14.2156  23513.6  151.727
 14.4136  22351.7  149.32
 14.6116  22023.1  147.413
 14.8096  21312.5  144.995
 15.0076  20413.9  145.813
 15.2056  19511.6  138.364
 15.4036  18451.5  135.379
 15.6016  18101.5  133.178
 15.7996  17512.4  131.256
 15.9976  17531.8  134.837
 16.1956  16915.6  129.733
 16.3936  16613.4  127.744
 16.5916  16612.1  128.398
 16.7896  16630.2  128.52
 16.9876  16405.5  129.118
 17.1856  16188.4  126.657
 17.3836  15870.7  125.311
 17.5816  15448  124.115
 17.7796  15134.9  122.776
 17.9776  14946.8  122.775
 18.1756  15109.6  122.189
 18.3736  14875.8  121.733
 18.5716  14603.9  120.353
 18.7696  14531.9  119.626
 18.9676  14453  119.092
 19.1656  14200.4  118.641
 19.3636  14050  118.217
 19.5616  14008.4  118.203
 19.7596  14323.5  118.917
 19.9576  14556.4  119.93
 20.1556  14015.8  118.212
 20.3536  13628.7  115.943
 20.5516  13378  115.318
 20.7496  13314.3  114.887
 20.9476  13254.1  114.47
 21.1456  13025.9  113.808
 21.3436  13034.2  113.804
 21.5416  12808.9  112.824
 21.7396  12783.9  112.554
 21.9376  12784.1  112.325
 22.1356  12898.4  113.104
 22.3336  12491.8  111.453
 22.5316  12533  111.723
 22.7296  12411.1  110.539
 22.9276  12412.9  111.224
 23.1256  12503.1  111.097
 23.3236  12540  111.822
 23.5216  12553.3  111.512
 23.7196  12588.7  111.842
 23.9176  12491.9  110.94
 24.1156  12289.7  110.511
 24.3136  11979  109.911
 24.5116  12069.5  109.852
 24.7096  11886.9  108.817
 24.9076  11592.6  107.501
 25.1056  11174.2  106.007
 25.3036  11181.9  105.554
 25.5016  11105.8  105.231
 25.6996  11134.4  104.95
 25.8976  11103.8  105.232
 26.0956  10946.7  104.493
 26.2936  11010.8  104.472
 26.4916  11244.4  105.425
 26.6896  10887  104.044
 26.8876  10752.1  103.254
 27.0856  10609.6  102.623
 27.2836  10375.4  101.374
 27.4816  10350.1  101.192
 27.6796  10278.8  101.209
 27.8776  10619.3  102.718
 28.0756  10160.1  100.775
 28.2736  10131.5  100.205
 28.4716  9976.06  99.4933
 28.6696  9917.65  99.0424
 28.8676  9816.67  98.8816
 29.0656  9679.75  98.1758
 29.2636  9786.37  98.5043
 29.4616  9479.74  97.1399
 29.6596  9519.29  96.9102
 29.8576  9305.48  96.4933
 30.0556  9355  96.626
 30.2536  9471.82  97.0217
 30.4516  9659.88  97.6014
 30.6496  9635.8  97.2147
 30.8476  9457.63  96.7539
 31.0456  9463.07  96.7427
 31.2436  9533.11  96.3549
 31.4416  9408.55  95.9234
 31.6396  9376.24  95.8077
 31.8376  9359.63  95.2387
 32.0356  9214.84  95.0808
 32.2336  9429.68  95.5746
 32.4316  8998.37  93.7688
 32.6296  8982.32  93.5128
 32.8276  9002.33  93.4098
 33.0256  9015.04  93.5266
 33.2236  9019.45  93.7058
 33.4216  8970.19  93.1358
 33.6196  8843.67  92.7781
 33.8176  8767.92  92.5366
 34.0156  8846.18  92.5748
 34.2136  8863.15  92.684
 34.4116  8604.08  91.4915
 34.6096  8514.78  90.8888
 34.8076  8581.8  91.6657
 35.0056  8594.84  91.4007
 35.2036  8748.42  92.4422
 35.4016  8420.42  90.6063
 35.5996  8423.74  90.6578
 35.7976  8486.93  91.2701
 35.9956  8626.33  91.6692
 36.1936  8500.74  90.8546
 36.3916  8277.66  89.8402
 36.5896  8387.39  91.43
 36.7876  8167.8  89.6213
 36.9856  8024.98  88.8621
 37.1836  8020.23  87.9508
 37.3816  8021.37  88.3144
 37.5796  8185.91  90.9445
 37.7776  8148.32  89.0899
 37.9756  8235.01  89.4495
 38.1736  8238.48  89.6452
 38.3716  8054.54  88.9201
 38.5696  7945.32  88.6865
 38.7676  7923.05  88.0953
 38.9656  8103.58  88.7182
 39.1636  7964.04  88.2167
 39.3616  8070.7  88.7508
 39.5596  7753.79  87.8109
 39.7576  7813.99  87.5416
 39.9556  8014.33  88.2947
 40.1536  7956.87  88.1683
 40.3516  7999.85  88.4085
 40.5496  7915.59  88.2165
 40.7476  7955.2  88.4358
 40.9456  8043.96  88.675
 41.1436  8109.26  88.7556
 41.3416  7863.9  87.7425
 41.5396  7891.82  87.7081
 41.7376  7932.35  88.1845
 41.9356  7817.04  87.4038
 42.1336  8075.57  88.9774
 42.3316  7829.76  87.8241
 42.5296  7927.71  87.8835
 42.7276  7877.57  87.8488
 42.9256  7987.97  88.3339
 43.1236  7746.57  87.087
 43.3216  7847.64  87.3897
 43.5196  7791.11  87.1566
 43.7176  7645.5  86.7108
 43.9156  7629.94  86.5644
 44.1136  7632.9  86.1315
 44.3116  7567.88  85.7761
 44.5096  7563.18  86.0587
 44.7076  7559.23  85.967
 44.9056  7804.93  87.2056
 45.1036  7709.02  86.2853
 45.3016  7583.31  86.0762
 45.4996  7508.93  85.5993
 45.6976  7484.71  85.6345
 45.8956  7622.83  86.2486
 46.0936  7652.52  86.1621
 46.2916  7630.23  86.2705
 46.4896  7616.67  86.2259
 46.6876  7413.32  85.7797
 46.8856  7381.68  84.8523
 47.0836  7472.68  85.6259
 47.2816  7410.11  85.1568
 47.4796  7601.64  86.3605
 47.6776  7370.94  85.9924
 47.8756  7393.33  85.2816
 48.0736  7477.21  86.225
 48.2716  7368.04  85.4175
 48.4696  7557.63  86.0746
 48.6676  7436.55  85.9936
 48.8656  7483.5  85.9909
 49.0636  7406.68  85.4836
 49.2616  7260.84  84.6797
 49.4596  7346.57  84.7273
 49.6576  7405.33  85.2955
 49.8556  7279.09  84.5925
 50.0536  7182.6  84.4824
 50.2516  7346.81  85.5715
 50.4496  7268.65  84.7726
 50.6476  7397.01  85.1779
 50.8456  7346.98  84.9853
 51.0436  7087.19  83.9302
 51.2416  7055.97  83.4032
 51.4396  6944.88  83.1605
 51.6376  7007  83.348
 51.8356  7046.7  83.2074
 52.0336  6958.39  83.1819
 52.2316  7092.66  84.3482
 52.4296  6877.01  82.7527
 52.6276  6938.16  83.2314
 52.8256  6917.93  82.6609
 53.0236  7145.05  84.6792
 53.2216  7021.81  83.9634
 53.4196  6968.16  83.5642
 53.6176  6995.72  84.2405
 53.8156  6982.16  83.8243
 54.0136  6695.93  82.2552
 54.2116  6844.84  82.7905
 54.4096  6637.35  81.6041
 54.6076  6628  81.8903
 54.8056  6606.22  81.527
 55.0036  6695.46  82.3494
 55.2016  6481.13  80.6862
 55.3996  6448.13  80.4659
 55.5976  6546.25  81.2648
 55.7956  6550.14  81.1024
 55.9936  6628.37  81.7006
 56.1916  6444.6  80.5856
 56.3896  6322.99  79.8267
 56.5876  6332.01  80.4435
 56.7856  6277.36  79.5744
 56.9836  6325.15  79.6597
 57.1816  6368.08  80.2023
 57.3796  6269.49  79.5002
 57.5776  6366.9  79.9957
 57.7756  6187.92  79.5332
 57.9736  6115.17  78.7364
 58.1716  6109.57  78.9593
 58.3696  5986.98  77.9286
 58.5676  6002.23  77.5028
 58.7656  6076.08  78.6539
 58.9636  6012.97  78.2712
 59.1616  6108.48  79.0227
 59.3596  6008.37  77.6274
 59.5576  5962.4  77.3861
 59.7556  5900.85  77.399
 59.9536  5913.16  77.3796
 60.1516  5803.29  77.4893
 60.1996  6010.08  81.9958