Folder: echemistpy/docs/examples/opeando_xrd/IS17_D/Data/IS17_D (part 48)

File: 17_Da_f00124.xye
# /beamlines/bl04/projects/cycle2025-II/20250340211-lsimonelli/DATA/IS17_D/17_Da_f00124.xye : mythproc.py merge -s 0.006 -l 0.5 -f /beamlines/bl04/inhouse/ff/FlatField/ff_20Nov2024rod8mm60s_17keV.raw -b True -c true -o xye /beamlines/bl04/projects/cycle2025-II/20250340211-lsimonelli/DATA/IS17_D/17_Da_00124.dat
# IsMon = [6757970, 6762613, 6761283]  IsPos = [-1.4999, -2.4884, -3.4988]
# Wave = 0.4962  CalPath /beamlines/bl04/projects/cycle2025-II/20250340211-lsimonelli/DATA/Align/Si_Pos1_25keV_f00001.cal
# Date = 2025-09-25_04:08:41 Dt = 4.8000  Bin = 0.0060  <imon> = 6760622 +/- 1952 (Min/Max) 6757970 / 6762613
# icurr 250.5120  mocoIn 1.7085E-05  mocoOut 0.8021  i15 7.08055e+06  imon 6.76062e+06  i7 6.0000  iEMpd_timer 4.8000  iEMpd_1 3.6296E-08  iEMpd_2 7.7908E-08  iEMpd_3 1.7247E-08  iEMpd_4 4.8526E-08  iEMhp_timer 4.8000  iEMhp_1 4.8931E-06  iEMhp_2 -2.3694E-08  iEMhp_3 -2.5455E-08  iEMhp_4 -2.1737E-08
#      9776
 1.7416  70300.2  265.27
 1.9396  46071.4  215.02
 2.1376  32856.3  181.58
 2.3356  29505.9  171.712
 2.5336  27306.3  165.77
 2.7316  25781.4  161.152
 2.9296  24701.1  157.913
 3.1276  24071.4  155.437
 3.3256  23869.7  154.44
 3.5236  25671.3  159.966
 3.7216  23346  153.79
 3.9196  23023.7  151.956
 4.1176  22971.5  151.559
 4.3156  24093.5  155.373
 4.5136  26475.7  161.85
 4.7116  27607.7  166.422
 4.9096  26971.9  163.924
 5.1076  26637.7  163.495
 5.3056  27123.1  164.698
 5.5036  26808  163.63
 5.7016  27206.8  164.815
 5.8996  27849.7  165.964
 6.0976  28656.3  169.804
 6.2956  29207.5  170.743
 6.4936  29962.7  172.126
 6.6916  30196.8  173.806
 6.8896  30881.8  175.623
 7.0876  31928.8  179.309
 7.2856  31861.4  178.17
 7.4836  32537.1  179.379
 7.6816  33107.3  181.484
 7.8796  34781.8  185.993
 8.0776  36092.7  190.452
 8.2756  38075.8  194.21
 8.4736  38384.7  194.801
 8.6716  37972.1  194.385
 8.8696  37704.1  194.205
 9.0676  37130.3  192.085
 9.2656  36167.6  190.274
 9.4636  35974.1  188.145
 9.6616  35135.4  186.717
 9.8596  33713.4  182.359
 10.0576  32035.1  178.417
 10.2556  30834.3  175.502
 10.4536  29603.7  171.562
 10.6516  29201.2  170.587
 10.8496  28351.8  167.502
 11.0476  27606.5  165.308
 11.2456  27042.7  164.138
 11.4436  27456.2  164.547
 11.6416  26987.8  163.508
 11.8396  25255  158.383
 12.0376  25054  157.381
 12.2356  24581.1  156.289
 12.4336  24480.5  155.514
 12.6316  24117.8  154.631
 12.8296  24493.2  155.459
 13.0276  25157.4  157.732
 13.2256  25097.3  157.921
 13.4236  25066.1  157.584
 13.6216  24697.9  156.446
 13.8196  24904.4  156.854
 14.0176  24477.7  155.788
 14.2156  24072.6  153.535
 14.4136  22813.1  150.847
 14.6116  22481.4  148.95
 14.8096  21877.7  146.919
 15.0076  20588.6  146.376
 15.2056  20307.2  141.137
 15.4036  19323.3  138.514
 15.6016  18831.1  135.816
 15.7996  18429.5  134.643
 15.9976  17625.7  134.626
 16.1956  17334  131.38
 16.3936  17002.6  129.284
 16.5916  16587.1  128.331
 16.7896  16723.9  128.918
 16.9876  16610  129.954
 17.1856  16244.4  126.861
 17.3836  15768.4  124.9
 17.5816  15425.7  124.021
 17.7796  15281.4  123.373
 17.9776  14980.9  122.946
 18.1756  15148.1  122.332
 18.3736  14911.4  121.876
 18.5716  14618.8  120.426
 18.7696  14834.5  120.878
 18.9676  14395.5  118.886
 19.1656  14301.3  119.05
 19.3636  14299.1  119.248
 19.5616  14212.7  119.053
 19.7596  14380.4  119.156
 19.9576  14861  121.187
 20.1556  14588.4  120.599
 20.3536  14018.9  117.592
 20.5516  13757  116.945
 20.7496  13329.6  115.053
 20.9476  13325.4  114.787
 21.1456  13415.6  115.5
 21.3436  13225.5  114.633
 21.5416  13233.1  114.67
 21.7396  12993.7  113.472
 21.9376  12983.7  113.193
 22.1356  13012.6  113.437
 22.3336  12923.4  113.338
 22.5316  12957.2  113.581
 22.7296  12942.5  112.862
 22.9276  12972.7  113.687
 23.1256  13115.6  113.779
 23.3236  12826.7  113.101
 23.5216  12796.2  112.616
 23.7196  12608.8  111.725
 23.9176  12569.8  111.317
 24.1156  12223.6  110.241
 24.3136  12008.2  110.053
 24.5116  12008.1  109.579
 24.7096  11690.6  107.938
 24.9076  11562.4  107.376
 25.1056  11386.2  107.016
 25.3036  11287.6  106.052
 25.5016  11215.2  105.749
 25.6996  11192.1  105.222
 25.8976  11159.1  105.502
 26.0956  11078.7  105.14
 26.2936  11215  105.427
 26.4916  11141.8  104.967
 26.6896  10748.6  103.393
 26.8876  10690.9  102.968
 27.0856  10818.7  103.633
 27.2836  10627.9  102.608
 27.4816  10479.3  101.82
 27.6796  10449.9  102.056
 27.8776  10356.1  101.457
 28.0756  10370.6  101.808
 28.2736  10216.9  100.636
 28.4716  10133.4  100.273
 28.6696  10161.3  100.255
 28.8676  10095.6  100.285
 29.0656  9861.14  99.0918
 29.2636  9815.34  98.655
 29.4616  9765.72  98.5795
 29.6596  9877.75  98.7049
 29.8576  9634.64  98.1714
 30.0556  9658.66  98.1711
 30.2536  9793.17  98.6382
 30.4516  9523.36  96.9444
 30.6496  9684.25  97.484
 30.8476  9591.92  97.4605
 31.0456  9534.53  97.1313
 31.2436  9504.03  96.2381
 31.4416  9388.73  95.8274
 31.6396  9268.08  95.2549
 31.8376  9303.63  94.9862
 32.0356  9310.42  95.5895
 32.2336  9162.63  94.2207
 32.4316  9139.46  94.498
 32.6296  9145.55  94.3662
 32.8276  9100.06  93.9048
 33.0256  9025.37  93.5974
 33.2236  9112.98  94.2
 33.4216  9120.47  93.9176
 33.6196  9042.75  93.815
 33.8176  8909.38  93.287
 34.0156  8928.59  92.999
 34.2136  8795.29  92.3461
 34.4116  8871.19  92.8895
 34.6096  8918.75  93.0168
 34.8076  8690.3  92.2252
 35.0056  8774.45  92.3632
 35.2036  8699.97  92.1803
 35.4016  8603.17  91.5883
 35.5996  8490.13  91.0174
 35.7976  8452.68  91.0874
 35.9956  8572.5  91.3854
 36.1936  8551.21  91.1371
 36.3916  8461.28  90.8306
 36.5896  8356.69  91.2482
 36.7876  8462.66  91.2123
 36.9856  8346.36  90.6103
 37.1836  8298.9  89.4509
 37.3816  8332.42  89.9998
 37.5796  8264.4  91.3709
 37.7776  8138.88  89.0581
 37.9756  8069.46  88.558
 38.1736  8313.74  90.0778
 38.3716  8002.73  88.661
 38.5696  8083.02  89.4747
 38.7676  7850.17  87.6876
 38.9656  7871.7  87.4441
 39.1636  8021.1  88.5304
 39.3616  8018.95  88.4506
 39.5596  7927.11  88.7877
 39.7576  7942.44  88.2515
 39.9556  7980.01  88.1034
 40.1536  8166.85  89.3341
 40.3516  8111.99  89.0441
 40.5496  8189.63  89.7237
 40.7476  8162.15  89.585
 40.9456  8151.14  89.2651
 41.1436  8088.66  88.6497
 41.3416  8050.21  88.7696
 41.5396  8021.35  88.4191
 41.7376  8040.17  88.7928
 41.9356  8009.63  88.4827
 42.1336  7987.29  88.5108
 42.3316  7915.73  88.3033
 42.5296  7892.65  87.6964
 42.7276  7973.7  88.3846
 42.9256  7953.03  88.1412
 43.1236  7869.28  87.7837
 43.3216  7850.44  87.4317
 43.5196  7790.08  87.1566
 43.7176  7773.03  87.4545
 43.9156  7691.3  86.8979
 44.1136  7673.08  86.3457
 44.3116  7639.07  86.1647
 44.5096  7713.96  86.9014
 44.7076  7677.72  86.6262
 44.9056  7683.75  86.5401
 45.1036  7708.81  86.3028
 45.3016  7447.05  85.3178
 45.4996  7417.2  85.0913
 45.6976  7300.64  84.5908
 45.8956  7542.32  85.7935
 46.0936  7413.55  85.0684
 46.2916  7423.96  85.1037
 46.4896  7452.67  85.3013
 46.6876  7202.05  84.5523
 46.8856  7207.65  83.8513
 47.0836  7240.31  84.2897
 47.2816  7121.7  83.477
 47.4796  7256.41  84.3732
 47.6776  7027.81  83.9672
 47.8756  7182  84.0596
 48.0736  7176.59  84.4827
 48.2716  6968.43  83.06
 48.4696  7155.66  83.7666
 48.6676  7138.08  84.2544
 48.8656  7032.72  83.3476
 49.0636  7024.06  83.2584
 49.2616  6983.56  83.0431
 49.4596  6942.27  82.3647
 49.6576  6914.55  82.4202
 49.8556  6889.93  82.3008
 50.0536  6897.77  82.7945
 50.2516  6806.62  82.3777
 50.4496  6875.22  82.442
 50.6476  6871.8  82.1081
 50.8456  6807.76  81.8053
 51.0436  6802.77  82.2139
 51.2416  6697.19  81.2552
 51.4396  6450.84  80.1339
 51.6376  6608.81  80.9347
 51.8356  6653.77  80.8431
 52.0336  6506.76  80.4595
 52.2316  6550.64  81.0757
 52.4296  6538.28  80.6813
 52.6276  6494.29  80.5242
 52.8256  6585.13  80.6484
 53.0236  6458.61  80.5127
 53.2216  6399.22  80.1735
 53.4196  6261.88  79.2365
 53.6176  6380.49  80.4588
 53.8156  6376.27  80.1039
 54.0136  6435.73  80.6467
 54.2116  6402.17  80.1052
 54.4096  6394.59  80.1049
 54.6076  6335.17  80.0826
 54.8056  6276.71  79.4997
 55.0036  6326.35  80.2077
 55.2016  6297.72  79.5728
 55.3996  6337.35  79.7861
 55.5976  6272.21  79.5662
 55.7956  6323.65  79.7015
 55.9936  6321.12  79.8297
 56.1916  6265  79.4902
 56.3896  6348.33  80.0036
 56.5876  6162.35  79.3788
 56.7856  6161.12  78.8463
 56.9836  6153.28  78.5904
 57.1816  6218.04  79.3812
 57.3796  6181.37  78.9419
 57.5776  6150.84  78.6761
 57.7756  6173.81  79.4602
 57.9736  6150.25  78.9835
 58.1716  6186.6  79.4595
 58.3696  6182.9  79.1794
 58.5676  6212.86  78.8439
 58.7656  6319.49  80.2016
 58.9636  6351.08  80.4357
 59.1616  6225.64  79.7462
 59.3596  6302.62  79.5095
 59.5576  6307.4  79.5975
 59.7556  6193.92  79.3018
 59.9536  6339.28  80.1233
 60.1516  6090.84  79.39
 60.1996  0.0000000E+00  0.0000000E+00

File: 17_Da_f00126.xye
# /beamlines/bl04/projects/cycle2025-II/20250340211-lsimonelli/DATA/IS17_D/17_Da_f00126.xye : mythproc.py merge -s 0.006 -l 0.5 -f /beamlines/bl04/inhouse/ff/FlatField/ff_20Nov2024rod8mm60s_17keV.raw -b True -c true -o xye /beamlines/bl04/projects/cycle2025-II/20250340211-lsimonelli/DATA/IS17_D/17_Da_00126.dat
# IsMon = [6783020, 6779092, 6777369]  IsPos = [-1.5000, -2.4884, -3.4988]
# Wave = 0.4962  CalPath /beamlines/bl04/projects/cycle2025-II/20250340211-lsimonelli/DATA/Align/Si_Pos1_25keV_f00001.cal
# Date = 2025-09-25_04:41:47 Dt = 4.8000  Bin = 0.0060  <imon> = 6779827 +/- 2365 (Min/Max) 6777369 / 6783020
# icurr 252.1596  mocoIn 1.7205E-05  mocoOut 0.8077  i15 7.09787e+06  imon 6.77983e+06  i7 3.3333  iEMpd_timer 4.8000  iEMpd_1 3.5771E-08  iEMpd_2 7.9340E-08  iEMpd_3 1.6747E-08  iEMpd_4 4.8890E-08  iEMhp_timer 4.8000  iEMhp_1 4.9258E-06  iEMhp_2 -2.6191E-08  iEMhp_3 -2.5213E-08  iEMhp_4 -2.0413E-08
#      9776
 1.7416  70969.8  266.415
 1.9396  46603.8  216.17
 2.1376  32966.1  181.805
 2.3356  29560.5  171.797
 2.5336  27370.2  165.892
 2.7316  25715.7  160.938
 2.9296  24590.5  157.539
 3.1276  24088.5  155.464
 3.3256  23884  154.485
 3.5236  25632.1  159.843
 3.7216  23506.5  154.321
 3.9196  23214  152.589
 4.1176  22966.9  151.521
 4.3156  24416.3  156.418
 4.5136  26689.8  162.51
 4.7116  27830.2  167.09
 4.9096  26995.1  163.997
 5.1076  26711.7  163.704
 5.3056  27196  164.932
 5.5036  26987.7  164.183
 5.7016  27461.4  165.584
 5.8996  28106.7  166.729
 6.0976  28899.7  170.501
 6.2956  29427.2  171.402
 6.4936  29937.6  172.056
 6.6916  30265.7  174.004
 6.8896  31057.4  176.127
 7.0876  32328.9  180.334
 7.2856  31968.1  178.472
 7.4836  32457.7  179.16
 7.6816  33278.3  181.952
 7.8796  34959.6  186.507
 8.0776  36406.5  191.321
 8.2756  38270.8  194.751
 8.4736  39081.8  196.602
 8.6716  38341.8  195.367
 8.8696  38142.7  195.315
 9.0676  37588.7  193.249
 9.2656  36674.2  191.573
 9.4636  36186.7  188.7
 9.6616  35349.4  187.293
 9.8596  33981  183.062
 10.0576  32236.9  178.984
 10.2556  31140  176.35
 10.4536  30033  172.784
 10.6516  29329.4  170.94
 10.8496  28529.9  168.021
 11.0476  27920.5  166.246
 11.2456  27267.8  164.831
 11.4436  27894.9  165.86
 11.6416  26761.6  162.819
 11.8396  25345.5  158.647
 12.0376  25414.2  158.516
 12.2356  24917.2  157.354
 12.4336  24563.2  155.775
 12.6316  24209.4  154.907
 12.8296  24646.2  155.947
 13.0276  25375.6  158.428
 13.2256  25129.5  158.018
 13.4236  25194.5  157.99
 13.6216  24960.3  157.255
 13.8196  25031.8  157.256
 14.0176  24620.7  156.255
 14.2156  24191  153.911
 14.4136  23058.6  151.653
 14.6116  22604.3  149.359
 14.8096  21899.8  147.003
 15.0076  20750.9  146.932
 15.2056  20427.1  141.584
 15.4036  19369.2  138.699
 15.6016  19177.1  137.088
 15.7996  18603.5  135.304
 15.9976  17808.9  135.332
 16.1956  17253.2  131.059
 16.3936  17246.8  130.197
 16.5916  16821.6  129.221
 16.7896  16681.9  128.744
 16.9876  16648.7  130.101
 17.1856  16289.9  127.038
 17.3836  15889  125.359
 17.5816  15485.3  124.243
 17.7796  15332.6  123.557
 17.9776  15241.6  124.009
 18.1756  15352.3  123.143
 18.3736  15061.8  122.496
 18.5716  14923.3  121.675
 18.7696  15000.6  121.554
 18.9676  14705.6  120.148
 19.1656  14573.8  120.186
 19.3636  14465.7  119.938
 19.5616  14299.3  119.415
 19.7596  14491.9  119.6
 19.9576  15173  122.448
 20.1556  14406.9  119.856
 20.3536  13869.6  116.962
 20.5516  13807.8  117.161
 20.7496  13300.6  114.831
 20.9476  13413  115.152
 21.1456  13504.5  115.891
 21.3436  13240.1  114.699
 21.5416  13177  114.422
 21.7396  12958.9  113.318
 21.9376  13073.1  113.582
 22.1356  12970.6  113.405
 22.3336  12948  113.47
 22.5316  12988.5  113.728
 22.7296  13079.3  113.473
 22.9276  12792.1  112.915
 23.1256  13194.3  114.146
 23.3236  12945.7  113.599
 23.5216  12866.4  112.909
 23.7196  12603.6  111.906
 23.9176  12641.8  111.61
 24.1156  12405.5  111.047
 24.3136  12244.5  111.121
 24.5116  12152.3  110.223
 24.7096  11780.3  108.339
 24.9076  11564.7  107.364
 25.1056  11482.1  107.452
 25.3036  11438.9  106.764
 25.5016  11343.1  106.35
 25.6996  11279.5  105.631
 25.8976  11224.6  105.805
 26.0956  11381.6  106.577
 26.2936  11318.6  105.916
 26.4916  11322.1  105.807
 26.6896  10936.7  104.294
 26.8876  10797.9  103.47
 27.0856  10953.5  104.28
 27.2836  10617.5  102.554
 27.4816  10517.4  102.002
 27.6796  10542.4  102.506
 27.8776  10414.5  101.732
 28.0756  10476.5  102.337
 28.2736  10356.3  101.321
 28.4716  10141.9  100.314
 28.6696  10144.4  100.175
 28.8676  10057.6  100.097
 29.0656  10038.7  99.9784
 29.2636  9975.68  99.4555
 29.4616  9903.79  99.2954
 29.6596  9882.46  98.7499
 29.8576  9721.4  98.6336
 30.0556  9760.85  98.7089
 30.2536  9833.45  98.8663
 30.4516  9659.77  97.6265
 30.6496  9689.51  97.5009
 30.8476  9725.48  98.1301
 31.0456  9552.05  97.1992
 31.2436  9518.78  96.2956
 31.4416  9279.43  95.2548
 31.6396  9393.67  95.8877
 31.8376  9420.54  95.5675
 32.0356  9314.2  95.5985
 32.2336  9363.95  95.2238
 32.4316  9205.41  94.8419
 32.6296  9169.12  94.4918
 32.8276  9334.35  95.1092
 33.0256  9142.55  94.2064
 33.2236  9159.65  94.43
 33.4216  9184.91  94.261
 33.6196  9072.6  93.9744
 33.8176  9010.4  93.8132
 34.0156  8946.65  93.0931
 34.2136  8964.98  93.2206
 34.4116  8823.39  92.6494
 34.6096  8892.99  92.8836
 34.8076  8695.13  92.2484
 35.0056  8823.92  92.6248
 35.2036  8671.87  92.0299
 35.4016  8627.26  91.7235
 35.5996  8587.62  91.5439
 35.7976  8529.05  91.5048
 35.9956  8671.82  91.8938
 36.1936  8578.58  91.283
 36.3916  8472.79  90.8966
 36.5896  8376.72  91.3416
 36.7876  8456.28  91.2
 36.9856  8274.8  90.2431
 37.1836  8450.01  90.2825
 37.3816  8494.99  90.8966
 37.5796  8279.89  91.4539
 37.7776  8203.74  89.3907
 37.9756  8138.43  88.917
 38.1736  8380.44  90.4353
 38.3716  8233.16  89.9185
 38.5696  8212.23  90.184
 38.7676  7972.86  88.3582
 38.9656  7934.9  87.7848
 39.1636  7980.81  88.2994
 39.3616  8106.02  88.9313
 39.5596  8041.77  89.4377
 39.7576  8027.04  88.7236
 39.9556  8097.82  88.7523
 40.1536  8256.19  89.8192
 40.3516  8227.56  89.6713
 40.5496  8249.69  90.0547
 40.7476  8156.08  89.5544
 40.9456  8299.85  90.0846
 41.1436  8171.21  89.0939
 41.3416  8101.09  89.0589
 41.5396  8045.72  88.55
 41.7376  8096.29  89.1
 41.9356  8000.64  88.4327
 42.1336  8058.55  88.8918
 42.3316  8053.6  89.077
 42.5296  8105.03  88.8663
 42.7276  8047.07  88.7933
 42.9256  7976.12  88.2688
 43.1236  7931.97  88.1324
 43.3216  7942.48  87.9366
 43.5196  7783.57  87.1168
 43.7176  7917.73  88.2658
 43.9156  7678.24  86.8395
 44.1136  7716.07  86.6055
 44.3116  7737.76  86.74
 44.5096  7596.71  86.256
 44.7076  7629.17  86.3649
 44.9056  7739.33  86.8423
 45.1036  7543.57  85.3652
 45.3016  7487.49  85.5462
 45.4996  7466.89  85.3674
 45.6976  7382.23  85.065
 45.8956  7471.02  85.3781
 46.0936  7522.97  85.4275
 46.2916  7545.4  85.7844
 46.4896  7553.24  85.8643
 46.6876  7442.44  85.9468
 46.8856  7252.88  84.116
 47.0836  7334.88  84.8322
 47.2816  7242.44  84.1852
 47.4796  7290.1  84.5669
 47.6776  7160.32  84.7581
 47.8756  7122.49  83.7094
 48.0736  7195.08  84.592
 48.2716  7116.63  83.9496
 48.4696  7173.16  83.8619
 48.6676  7083.92  83.92
 48.8656  7198.34  84.3263
 49.0636  7110.59  83.7533
 49.2616  6915.03  82.6489
 49.4596  7117.7  83.4037
 49.6576  6975.09  82.7866
 49.8556  6996.47  82.9332
 50.0536  6951.28  83.1084
 50.2516  6897.31  82.9199
 50.4496  6865.81  82.3899
 50.6476  6988.22  82.7996
 50.8456  6830.07  81.9399
 51.0436  6807.83  82.2653
 51.2416  6713.8  81.3724
 51.4396  6609.81  81.133
 51.6376  6705.71  81.541
 51.8356  6668.39  80.9449
 52.0336  6440.66  80.0391
 52.2316  6564.34  81.1559
 52.4296  6638.3  81.3059
 52.6276  6659.07  81.5548
 52.8256  6539.46  80.3506
 53.0236  6514.35  80.8507
 53.2216  6414.18  80.2335
 53.4196  6366.74  79.8854
 53.6176  6383.59  80.469
 53.8156  6384.94  80.1504
 54.0136  6453.49  80.7688
 54.2116  6408.03  80.1341
 54.4096  6401.66  80.1467
 54.6076  6334.58  80.0791
 54.8056  6277.72  79.5066
 55.0036  6299.21  79.9035
 55.2016  6376.96  79.9915
 55.3996  6308.99  79.6151
 55.5976  6335.02  79.9636
 55.7956  6268.92  79.3584
 55.9936  6302.69  79.7013
 56.1916  6304.3  79.7288
 56.3896  6287.32  79.6293
 56.5876  6266.21  80.0395
 56.7856  6213.36  79.1821
 56.9836  6195.65  78.8492
 57.1816  6311.62  79.9647
 57.3796  6311.7  79.7697
 57.5776  6271.26  79.4458
 57.7756  6156.04  79.3473
 57.9736  6242.59  79.5779
 58.1716  6326.43  80.3524
 58.3696  6219.1  79.4275
 58.5676  6276.52  79.2631
 58.7656  6259.51  79.8257
 58.9636  6367.58  80.5566
 59.1616  6269.57  80.0623
 59.3596  6514.25  80.8509
 59.5576  6388.97  80.129
 59.7556  6275.59  79.8412
 59.9536  6489.37  81.0849
 60.1516  6358.5  81.1343
 60.1996  0.0000000E+00  0.0000000E+00