Folder: echemistpy/docs/examples/opeando_xrd/IS17_D/Data/IS17_D (part 120)

File: 17_Db_f00153.xye
# /beamlines/bl04/projects/cycle2025-II/20250340211-lsimonelli/DATA/IS17_D/17_Db_f00153.xye : mythproc.py merge -s 0.006 -l 0.5 -f /beamlines/bl04/inhouse/ff/FlatField/ff_20Nov2024rod8mm60s_17keV.raw -b True -c true -o xye /beamlines/bl04/projects/cycle2025-II/20250340211-lsimonelli/DATA/IS17_D/17_Db_00153.dat
# IsMon = [6768582, 6768801, 6769457]  IsPos = [-1.4999, -2.4883, -3.4988]
# Wave = 0.4962  CalPath /beamlines/bl04/projects/cycle2025-II/20250340211-lsimonelli/DATA/Align/Si_Pos1_25keV_f00001.cal
# Date = 2025-09-25_12:22:02 Dt = 4.8000  Bin = 0.0060  <imon> = 6768947 +/- 372 (Min/Max) 6768582 / 6769457
# icurr 252.0431  mocoIn 1.7193E-05  mocoOut 0.8065  i15 7.09326e+06  imon 6.76895e+06  i7 4.6667  iEMpd_timer 4.8000  iEMpd_1 3.4234E-08  iEMpd_2 7.8172E-08  iEMpd_3 1.7475E-08  iEMpd_4 4.7917E-08  iEMhp_timer 4.8000  iEMhp_1 4.9229E-06  iEMhp_2 -2.4366E-08  iEMhp_3 -2.4539E-08  iEMhp_4 -2.0032E-08
#      9776
 1.7416  70625.3  265.838
 1.9396  49568.6  222.991
 2.1376  36158.9  190.456
 2.3356  32579.4  180.404
 2.5336  30236.7  174.408
 2.7316  27851.8  167.506
 2.9296  26482.1  163.495
 3.1276  26163.1  162.038
 3.3256  25582.1  159.903
 3.5236  26564.2  162.727
 3.7216  24658  158.047
 3.9196  23899.1  154.793
 4.1176  24046.7  155.054
 4.3156  24866  157.844
 4.5136  27270.7  164.263
 4.7116  28134.9  167.994
 4.9096  27575.9  165.746
 5.1076  27198.2  165.191
 5.3056  27424.3  165.594
 5.5036  27276.6  165.062
 5.7016  27800.2  166.6
 5.8996  28532.2  167.992
 6.0976  29236.6  171.487
 6.2956  29266.1  170.917
 6.4936  30069.8  172.422
 6.6916  30037.4  173.336
 6.8896  31011.6  175.964
 7.0876  31787.2  178.905
 7.2856  31959  178.423
 7.4836  32285.4  178.767
 7.6816  32750.1  180.473
 7.8796  34186.8  184.399
 8.0776  35209.3  188.126
 8.2756  36988.2  191.427
 8.4736  37747.2  193.19
 8.6716  37053.5  192.04
 8.8696  37712  194.242
 9.0676  36943.9  191.571
 9.2656  35974  189.738
 9.4636  35155  186.016
 9.6616  34311.3  184.506
 9.8596  33906.3  182.858
 10.0576  31677.2  177.424
 10.2556  30706.9  175.13
 10.4536  29668.6  171.744
 10.6516  28964.1  169.903
 10.8496  27918.4  166.213
 11.0476  27203.9  164.094
 11.2456  26512.8  162.53
 11.4436  26890.9  162.847
 11.6416  26764.5  162.807
 11.8396  25363.2  158.69
 12.0376  24655  156.113
 12.2356  24116.8  154.806
 12.4336  24210.8  154.651
 12.6316  24071.6  154.473
 12.8296  24212.4  154.529
 13.0276  24467.7  155.556
 13.2256  24793.2  156.956
 13.4236  24471  155.706
 13.6216  24846.4  156.883
 13.8196  26983.8  162.965
 14.0176  24073.5  154.508
 14.2156  23559.6  151.881
 14.4136  22408.1  149.508
 14.6116  22223.5  148.077
 14.8096  21408.9  145.321
 15.0076  20476.8  146.038
 15.2056  19500.1  138.312
 15.4036  18559  135.763
 15.6016  18024.4  132.886
 15.7996  17890.3  132.662
 15.9976  17619.2  134.573
 16.1956  17079.6  130.362
 16.3936  16808.6  128.52
 16.5916  16708.8  128.787
 16.7896  16595.8  128.407
 16.9876  16538.1  129.645
 17.1856  16186.6  126.638
 17.3836  15855  125.245
 17.5816  15408.6  123.949
 17.7796  15386.6  123.789
 17.9776  14981  122.929
 18.1756  15087.7  122.102
 18.3736  14707.5  121.035
 18.5716  14565.2  120.199
 18.7696  14658.3  120.147
 18.9676  14426  118.985
 19.1656  14051.6  118.018
 19.3636  14045.9  118.191
 19.5616  13994.3  118.145
 19.7596  14311.7  118.874
 19.9576  14518.2  119.763
 20.1556  14483.1  120.152
 20.3536  13771.3  116.556
 20.5516  13546  116.039
 20.7496  13290.5  114.875
 20.9476  13263.9  114.514
 21.1456  13097.6  114.12
 21.3436  13077.1  113.985
 21.5416  12978.6  113.566
 21.7396  12833  112.767
 21.9376  12687.4  111.902
 22.1356  12789.8  112.476
 22.3336  12576.1  111.818
 22.5316  12437.7  111.29
 22.7296  12514.3  111.004
 22.9276  12436.9  111.321
 23.1256  12565.6  111.376
 23.3236  12751.5  112.764
 23.5216  12692.6  112.141
 23.7196  12665.7  111.97
 23.9176  12556.9  111.246
 24.1156  12379.3  110.916
 24.3136  12103  110.48
 24.5116  12154.5  110.222
 24.7096  11853.8  108.676
 24.9076  11747.5  108.223
 25.1056  11458.7  107.347
 25.3036  11135  105.333
 25.5016  11219.3  105.771
 25.6996  11181.8  105.166
 25.8976  11239.1  105.876
 26.0956  11044  104.965
 26.2936  10911.7  103.995
 26.4916  11121.8  104.842
 26.6896  10941.5  104.301
 26.8876  10842.8  103.68
 27.0856  10521.7  102.204
 27.2836  10488  101.989
 27.4816  10314.8  101.022
 27.6796  10236.8  101.003
 27.8776  10476  102.021
 28.0756  10079.7  100.372
 28.2736  10192  100.505
 28.4716  10119.5  100.2
 28.6696  10004.8  99.4739
 28.8676  9868.28  99.1527
 29.0656  9841.3  99.0022
 29.2636  9862.38  98.8873
 29.4616  9547.79  97.4794
 29.6596  9622.49  97.429
 29.8576  9353.32  96.7352
 30.0556  9492.33  97.3307
 30.2536  9458.7  96.9477
 30.4516  9616.64  97.3907
 30.6496  9717.22  97.6294
 30.8476  9540.19  97.1892
 31.0456  9607.93  97.4948
 31.2436  9653.44  96.9806
 31.4416  9359.08  95.6716
 31.6396  9435.99  96.1111
 31.8376  9366.55  95.2831
 32.0356  9333.26  95.6717
 32.2336  9348.67  95.1613
 32.4316  9027  93.8641
 32.6296  8977.3  93.4829
 32.8276  9108.83  93.9603
 33.0256  8953.15  93.2097
 33.2236  9046.89  93.8386
 33.4216  8930.37  92.9262
 33.6196  8940.43  93.2798
 33.8176  8888.48  93.1655
 34.0156  8788.26  92.2727
 34.2136  8951.23  93.1473
 34.4116  8670.33  91.9495
 34.6096  8621.93  91.4583
 34.8076  8550.49  91.499
 35.0056  8563.94  91.2402
 35.2036  8763.29  92.518
 35.4016  8514.78  91.1135
 35.5996  8484.43  90.9872
 35.7976  8498.79  91.3421
 35.9956  8693.01  92.0168
 36.1936  8534.3  91.0123
 36.3916  8430.42  90.6241
 36.5896  8404.53  91.5232
 36.7876  8169  89.624
 36.9856  8173.02  89.667
 37.1836  8274.59  89.3285
 37.3816  8135.43  88.9378
 37.5796  8125.21  90.6087
 37.7776  8225.87  89.522
 37.9756  8266.4  89.6255
 38.1736  8291.51  89.9571
 38.3716  8223.28  89.8632
 38.5696  8081.19  89.4482
 38.7676  7970.09  88.3507
 38.9656  8063.47  88.4971
 39.1636  8044.62  88.6579
 39.3616  8031.38  88.5247
 39.5596  7891.67  88.599
 39.7576  7937.47  88.2318
 39.9556  7940.36  87.8866
 40.1536  8018.83  88.5122
 40.3516  8039.37  88.6431
 40.5496  7987  88.6046
 40.7476  8009.23  88.7332
 40.9456  8083.38  88.897
 41.1436  8151.05  88.9881
 41.3416  7899.68  87.9041
 41.5396  7933.77  87.8665
 41.7376  7942.66  88.2467
 41.9356  7824.75  87.4475
 42.1336  8071.46  88.957
 42.3316  7819.36  87.7639
 42.5296  8039.2  88.4943
 42.7276  7935.45  88.1676
 42.9256  7892.58  87.8046
 43.1236  7878.97  87.831
 43.3216  7873.59  87.5542
 43.5196  7833.58  87.3827
 43.7176  7886.04  88.0857
 43.9156  7603.83  86.4106
 44.1136  7547.64  85.6443
 44.3116  7700.28  86.5182
 44.5096  7730.06  86.9989
 44.7076  7612.18  86.2623
 44.9056  7836.76  87.3871
 45.1036  7689.8  86.1841
 45.3016  7642.57  86.431
 45.4996  7625.53  86.2714
 45.6976  7562.4  86.0921
 45.8956  7568.28  85.9381
 46.0936  7702.51  86.6435
 46.2916  7617.76  86.2029
 46.4896  7540.94  85.7844
 46.6876  7475.35  86.1451
 46.8856  7540.52  85.7669
 47.0836  7484.55  85.6862
 47.2816  7363.15  84.8813
 47.4796  7404.45  85.2242
 47.6776  7465.82  86.5509
 47.8756  7425.75  85.4674
 48.0736  7399.09  85.7758
 48.2716  7399.6  85.6283
 48.4696  7391.55  85.1433
 48.6676  7479.01  86.245
 48.8656  7541.02  86.3129
 49.0636  7478.76  85.9077
 49.2616  7329.15  84.9597
 49.4596  7265.16  84.4102
 49.6576  7352.28  84.9951
 49.8556  7308.43  84.7611
 50.0536  7312.31  85.2311
 50.2516  7327.75  85.4725
 50.4496  7298.47  84.9444
 50.6476  7343.64  84.8793
 50.8456  7324.85  84.8602
 51.0436  7183.14  84.4793
 51.2416  7053.7  83.3946
 51.4396  6877.43  82.7503
 51.6376  7146.64  84.1726
 51.8356  7064.1  83.2947
 52.0336  6938.56  83.0706
 52.2316  7059.79  84.1561
 52.4296  6958.18  83.2481
 52.6276  6936.9  83.2374
 52.8256  6998.11  83.152
 53.0236  7090.82  84.3571
 53.2216  7084.9  84.3583
 53.4196  7024.86  83.9064
 53.6176  6949.38  83.966
 53.8156  6865.85  83.1195
 54.0136  6755.01  82.6173
 54.2116  6853.26  82.8499
 54.4096  6612.11  81.4495
 54.6076  6703.62  82.3544
 54.8056  6645.98  81.7703
 55.0036  6685.76  82.4364
 55.2016  6799.96  82.6379
 55.3996  6444.35  80.4279
 55.5976  6554.92  81.3168
 55.7956  6506.8  80.8353
 55.9936  6646.42  81.8291
 56.1916  6421.04  80.4682
 56.3896  6332.01  79.8771
 56.5876  6340.22  80.485
 56.7856  6410.89  80.4222
 56.9836  6483.81  80.6544
 57.1816  6408.36  80.5489
 57.3796  6321.91  79.8104
 57.5776  6408.08  80.2368
 57.7756  6180.8  79.4892
 57.9736  6241.12  79.5347
 58.1716  6151.58  79.2307
 58.3696  5925.54  77.5209
 58.5676  6087.79  78.0519
 58.7656  6059.45  78.5403
 58.9636  6019.65  78.2981
 59.1616  5995.03  78.2859
 59.3596  6036.87  77.8137
 59.5576  5921.34  77.1239
 59.7556  6040.44  78.314
 59.9536  5968.2  77.7437
 60.1516  5974.07  78.6261
 60.1996  0.0000000E+00  0.0000000E+00

File: 17_Db_f00154.xye
# /beamlines/bl04/projects/cycle2025-II/20250340211-lsimonelli/DATA/IS17_D/17_Db_f00154.xye : mythproc.py merge -s 0.006 -l 0.5 -f /beamlines/bl04/inhouse/ff/FlatField/ff_20Nov2024rod8mm60s_17keV.raw -b True -c true -o xye /beamlines/bl04/projects/cycle2025-II/20250340211-lsimonelli/DATA/IS17_D/17_Db_00154.dat
# IsMon = [6779174, 6773178, 6776529]  IsPos = [-1.4999, -2.4883, -3.4988]
# Wave = 0.4962  CalPath /beamlines/bl04/projects/cycle2025-II/20250340211-lsimonelli/DATA/Align/Si_Pos1_25keV_f00001.cal
# Date = 2025-09-25_12:38:38 Dt = 4.8000  Bin = 0.0060  <imon> = 6776294 +/- 2454 (Min/Max) 6773178 / 6779174
# icurr 252.8153  mocoIn 1.7244E-05  mocoOut 0.8091  i15 7.10084e+06  imon 6.77629e+06  i7 5.0000  iEMpd_timer 4.8000  iEMpd_1 3.6151E-08  iEMpd_2 7.8852E-08  iEMpd_3 1.6616E-08  iEMpd_4 4.8299E-08  iEMhp_timer 4.8000  iEMhp_1 4.9373E-06  iEMhp_2 -2.7308E-08  iEMhp_3 -2.3431E-08  iEMhp_4 -2.1193E-08
#      9776
 1.7416  70786.3  266.077
 1.9396  49273.7  222.284
 2.1376  36270.3  190.704
 2.3356  32311.7  179.618
 2.5336  30063.3  173.866
 2.7316  27940  167.77
 2.9296  26734.2  164.274
 3.1276  26233.5  162.243
 3.3256  25691.2  160.246
 3.5236  26911.3  163.791
 3.7216  24642.2  157.996
 3.9196  24141.5  155.578
 4.1176  24053.8  155.07
 4.3156  24881  157.894
 4.5136  27290.9  164.337
 4.7116  28389.9  168.757
 4.9096  27712.8  166.149
 5.1076  27555.3  166.26
 5.3056  27565.1  166.009
 5.5036  27418.1  165.496
 5.7016  27718.4  166.353
 5.8996  28451.6  167.758
 6.0976  29310.9  171.697
 6.2956  29291.1  170.996
 6.4936  30016.9  172.275
 6.6916  30298.6  174.083
 6.8896  31132  176.306
 7.0876  32106.8  179.802
 7.2856  32054  178.692
 7.4836  32169  178.451
 7.6816  33242.8  181.822
 7.8796  33973.7  183.854
 8.0776  35645.9  189.311
 8.2756  37037.6  191.577
 8.4736  38053.2  193.999
 8.6716  36977.2  191.865
 8.8696  37929.2  194.779
 9.0676  36788.5  191.149
 9.2656  35869.6  189.45
 9.4636  35255.7  186.271
 9.6616  34241.6  184.303
 9.8596  33792.3  182.538
 10.0576  31650.2  177.361
 10.2556  30708.4  175.128
 10.4536  29899.2  172.404
 10.6516  29165.3  170.484
 10.8496  28256.4  167.208
 11.0476  27651.4  165.438
 11.2456  26665.5  163.006
 11.4436  27006  163.191
 11.6416  26827  162.996
 11.8396  25380.2  158.744
 12.0376  24656.5  156.112
 12.2356  24299.3  155.406
 12.4336  24249.8  154.776
 12.6316  24238.2  154.998
 12.8296  24125.1  154.249
 13.0276  24650.9  156.148
 13.2256  24727.2  156.752
 13.4236  24761.8  156.628
 13.6216  24943.4  157.193
 13.8196  27073.7  163.246
 14.0176  24142.2  154.738
 14.2156  23611.3  152.041
 14.4136  22447.5  149.639
 14.6116  22268.1  148.226
 14.8096  21517.2  145.692
 15.0076  20487.5  146.072
 15.2056  19640.1  138.827
 15.4036  18706.5  136.311
 15.6016  18425  134.371
 15.7996  17787.8  132.297
 15.9976  17645.6  134.686
 16.1956  17361.6  131.44
 16.3936  16848.6  128.652
 16.5916  16797  129.107
 16.7896  16783  129.103
 16.9876  16560.6  129.731
 17.1856  16305.6  127.113
 17.3836  16030.7  125.936
 17.5816  15425  124.016
 17.7796  15407.4  123.87
 17.9776  15005.8  123.024
 18.1756  15086.4  122.095
 18.3736  14837.7  121.585
 18.5716  14575  120.237
 18.7696  14746.2  120.505
 18.9676  14588  119.65
 19.1656  14315.7  119.126
 19.3636  14237.3  119
 19.5616  14037.3  118.328
 19.7596  14268.4  118.682
 19.9576  14555.7  119.93
 20.1556  14465.7  120.09
 20.3536  13884.8  117.027
 20.5516  13589.4  116.225
 20.7496  13301  114.924
 20.9476  13216.8  114.303
 21.1456  13127.8  114.259
 21.3436  13131.8  114.221
 21.5416  12987.7  113.609
 21.7396  12774.3  112.511
 21.9376  12773.1  112.28
 22.1356  12919.6  113.049
 22.3336  12528.6  111.624
 22.5316  12520.6  111.673
 22.7296  12576.1  111.291
 22.9276  12469  111.48
 23.1256  12647.6  111.747
 23.3236  12775.1  112.863
 23.5216  12768  112.465
 23.7196  12596.5  111.662
 23.9176  12606.7  111.447
 24.1156  12511.3  111.494
 24.3136  12199.2  110.919
 24.5116  12144  110.182
 24.7096  11874  108.767
 24.9076  11731.4  108.137
 25.1056  11348.3  106.83
 25.3036  11177.7  105.539
 25.5016  11135.1  105.373
 25.6996  11193  105.225
 25.8976  11164.3  105.517
 26.0956  11062.5  105.051
 26.2936  11210.9  105.415
 26.4916  11185.5  105.138
 26.6896  10942.6  104.31
 26.8876  10883.1  103.872
 27.0856  10587  102.52
 27.2836  10492.6  102.017
 27.4816  10531.2  102.073
 27.6796  10410  101.855
 27.8776  10600.5  102.623
 28.0756  10177.7  100.861
 28.2736  10226  100.672
 28.4716  10010.3  99.6597
 28.6696  10022.9  99.5723
 28.8676  9916.94  99.3953
 29.0656  9872.08  99.1481
 29.2636  9882.82  98.988
 29.4616  9592.32  97.718
 29.6596  9698.38  97.8228
 29.8576  9421.91  97.099
 30.0556  9352.46  96.6179
 30.2536  9531.66  97.3363
 30.4516  9633.04  97.4762
 30.6496  9642.16  97.2407
 30.8476  9672.62  97.8519
 31.0456  9629.68  97.5873
 31.2436  9491.17  96.1438
 31.4416  9330.91  95.5298
 31.6396  9453.51  96.1907
 31.8376  9493.77  95.9174
 32.0356  9409.05  96.0619
 32.2336  9287.64  94.8458
 32.4316  9008.1  93.7645
 32.6296  9000.05  93.6162
 32.8276  9086.82  93.8455
 33.0256  8966.13  93.2821
 33.2236  9036.84  93.7887
 33.4216  9082.8  93.7146
 33.6196  8973.88  93.4388
 33.8176  9016.09  93.8436
 34.0156  8928.95  93.0058
 34.2136  8898.71  92.8609
 34.4116  8683.97  92.0265
 34.6096  8672.57  91.7306
 34.8076  8547.81  91.4848
 35.0056  8607.52  91.465
 35.2036  8822.07  92.8213
 35.4016  8511.27  91.0953
 35.5996  8546.05  91.3118
 35.7976  8593.69  91.8406
 35.9956  8674.89  91.923
 36.1936  8617.32  91.4688
 36.3916  8427.5  90.6026
 36.5896  8444.31  91.7374
 36.7876  8239.39  90.0218
 36.9856  8048.21  88.9926
 37.1836  8090.83  88.3409
 37.3816  8055.05  88.5048
 37.5796  8194.38  90.9878
 37.7776  8251.75  89.6409
 37.9756  8251.79  89.5335
 38.1736  8299.92  89.9916
 38.3716  8219.87  89.8359
 38.5696  8071.88  89.4082
 38.7676  7913.93  88.0353
 38.9656  8089.49  88.638
 39.1636  8131.5  89.1337
 39.3616  8090.51  88.858
 39.5596  7984.33  89.105
 39.7576  7806.44  87.5014
 39.9556  8036.59  88.4184
 40.1536  8095.81  88.9318
 40.3516  8016.31  88.5125
 40.5496  7995.91  88.6569
 40.7476  8125.28  89.3766
 40.9456  8175.85  89.4067
 41.1436  8185.45  89.1682
 41.3416  7886.61  87.8311
 41.5396  7887.05  87.6189
 41.7376  7909.17  88.0633
 41.9356  7957.16  88.1807
 42.1336  8152.59  89.386
 42.3316  7909.95  88.2775
 42.5296  7961.19  88.0633
 42.7276  7962.85  88.3256
 42.9256  7915.21  87.9252
 43.1236  7819.55  87.5001
 43.3216  7973.16  88.0891
 43.5196  7815.11  87.2766
 43.7176  7900.94  88.1513
 43.9156  7665.59  86.7709
 44.1136  7580.41  85.8406
 44.3116  7731.04  86.6997
 44.5096  7646.56  86.535
 44.7076  7713.51  86.8453
 44.9056  7724.16  86.7518
 45.1036  7678.3  86.1088
 45.3016  7706.36  86.777
 45.4996  7745.27  86.9304
 45.6976  7638.6  86.5193
 45.8956  7633.23  86.3062
 46.0936  7691.66  86.5825
 46.2916  7647.93  86.3749
 46.4896  7649.2  86.3998
 46.6876  7526.48  86.4338
 46.8856  7575.88  85.9642
 47.0836  7506.93  85.8225
 47.2816  7375.09  84.9534
 47.4796  7515.77  85.8703
 47.6776  7484.17  86.6491
 47.8756  7398.08  85.3062
 48.0736  7527.78  86.5195
 48.2716  7415.57  85.7183
 48.4696  7570.14  86.1787
 48.6676  7476.2  86.2251
 48.8656  7502.77  86.0999
 49.0636  7592.5  86.5518
 49.2616  7322.28  84.9263
 49.4596  7341.75  84.8591
 49.6576  7373.03  85.1137
 49.8556  7401.15  85.2977
 50.0536  7524.33  86.4719
 50.2516  7315.2  85.3881
 50.4496  7302.37  84.9697
 50.6476  7406.51  85.2396
 50.8456  7439.83  85.5246
 51.0436  7100.46  84.0108
 51.2416  7220.83  84.3803
 51.4396  7005.26  83.5259
 51.6376  7145.94  84.1811
 51.8356  7106.13  83.5508
 52.0336  7113.46  84.1039
 52.2316  6935.61  83.4028
 52.4296  6943.52  83.1572
 52.6276  6998.36  83.5921
 52.8256  7124.93  83.8862
 53.0236  7168.26  84.8141
 53.2216  7048.69  84.1419
 53.4196  6901.97  83.1671
 53.6176  7042.16  84.5189
 53.8156  6861.79  83.0948
 54.0136  6749.21  82.5828
 54.2116  6908.53  83.1714
 54.4096  6682.95  81.8847
 54.6076  6659.9  82.0791
 54.8056  6629.67  81.6722
 55.0036  6577.93  81.7659
 55.2016  6756.94  82.3796
 55.3996  6507.54  80.8345
 55.5976  6627.2  81.7565
 55.7956  6573.47  81.2416
 55.9936  6626.85  81.7021
 56.1916  6559.01  81.3328
 56.3896  6367.66  80.1174
 56.5876  6456.2  81.2305
 56.7856  6294.18  79.6971
 56.9836  6381.7  80.0139
 57.1816  6593.99  81.7081
 57.3796  6389.24  80.2438
 57.5776  6409.05  80.2578
 57.7756  6331.92  80.4504
 57.9736  6258.44  79.6539
 58.1716  6277.84  80.043
 58.3696  5993.26  77.9771
 58.5676  6077.11  77.9744
 58.7656  6078.45  78.6744
 58.9636  6083.35  78.7331
 59.1616  6036.07  78.5599
 59.3596  6077.6  78.0796
 59.5576  5958.41  77.3666
 59.7556  5981.6  77.9332
 59.9536  5856.87  77.0168
 60.1516  5978.17  78.6548
 60.1996  0.0000000E+00  0.0000000E+00