Folder: echemistpy/docs/examples/opeando_xrd/IS17_D/Data/IS17_D (part 119)

File: 17_Db_f00149.xye
# /beamlines/bl04/projects/cycle2025-II/20250340211-lsimonelli/DATA/IS17_D/17_Db_f00149.xye : mythproc.py merge -s 0.006 -l 0.5 -f /beamlines/bl04/inhouse/ff/FlatField/ff_20Nov2024rod8mm60s_17keV.raw -b True -c true -o xye /beamlines/bl04/projects/cycle2025-II/20250340211-lsimonelli/DATA/IS17_D/17_Db_00149.dat
# IsMon = [6738239, 6742050, 6742588]  IsPos = [-1.4999, -2.4883, -3.4988]
# Wave = 0.4962  CalPath /beamlines/bl04/projects/cycle2025-II/20250340211-lsimonelli/DATA/Align/Si_Pos1_25keV_f00001.cal
# Date = 2025-09-25_11:13:23 Dt = 4.8000  Bin = 0.0060  <imon> = 6740959 +/- 1936 (Min/Max) 6738239 / 6742588
# icurr 249.4715  mocoIn 1.7018E-05  mocoOut 0.7989  i15 7.06541e+06  imon 6.74096e+06  i7 3.3333  iEMpd_timer 4.8000  iEMpd_1 3.4350E-08  iEMpd_2 7.7956E-08  iEMpd_3 1.7582E-08  iEMpd_4 4.7917E-08  iEMhp_timer 4.8000  iEMhp_1 4.8727E-06  iEMhp_2 -2.5095E-08  iEMhp_3 -2.3352E-08  iEMhp_4 -2.0945E-08
#      9776
 1.7416  70183.1  265.05
 1.9396  48916.5  221.563
 2.1376  35760.1  189.436
 2.3356  32009.9  178.851
 2.5336  29506.4  172.319
 2.7316  27303.8  165.859
 2.9296  26050  162.16
 3.1276  25560.7  160.173
 3.3256  25073.8  158.317
 3.5236  26302.4  161.914
 3.7216  24201.3  156.569
 3.9196  23645.1  153.964
 4.1176  23654.7  153.79
 4.3156  24556  156.857
 4.5136  27052.1  163.6
 4.7116  28079.6  167.83
 4.9096  27114  164.348
 5.1076  27037  164.706
 5.3056  27176.9  164.832
 5.5036  27083.6  164.473
 5.7016  27469.3  165.604
 5.8996  28263.3  167.202
 6.0976  29078.8  171.034
 6.2956  28828.3  169.627
 6.4936  29684.8  171.317
 6.6916  30026.6  173.301
 6.8896  30461.5  174.384
 7.0876  31602.3  178.386
 7.2856  31513  177.175
 7.4836  31875.8  177.619
 7.6816  32673.4  180.263
 7.8796  33696.4  183.064
 8.0776  34871.6  187.205
 8.2756  36702.8  190.672
 8.4736  37589.1  192.771
 8.6716  36859.1  191.515
 8.8696  37280.8  193.137
 9.0676  36762.4  191.107
 9.2656  35640.3  188.872
 9.4636  34822.7  185.136
 9.6616  33987.9  183.636
 9.8596  33410.9  181.526
 10.0576  31245.2  176.2
 10.2556  30439.9  174.381
 10.4536  29701  171.844
 10.6516  29179.8  170.543
 10.8496  27922.9  166.232
 11.0476  27267.9  164.287
 11.2456  26384.5  162.135
 11.4436  27036.7  163.286
 11.6416  26239.7  161.197
 11.8396  25019.1  157.622
 12.0376  24473.7  155.529
 12.2356  23892.5  154.083
 12.4336  23998.6  153.98
 12.6316  24131.7  154.672
 12.8296  24076.6  154.093
 13.0276  24264.2  154.906
 13.2256  24444.2  155.848
 13.4236  24322  155.234
 13.6216  24872.9  156.986
 13.8196  26642.9  161.925
 14.0176  23768.8  153.522
 14.2156  23459  151.555
 14.4136  22206.9  148.832
 14.6116  21942.6  147.134
 14.8096  21196.9  144.6
 15.0076  20229.4  145.156
 15.2056  19437.4  138.073
 15.4036  18292.1  134.768
 15.6016  18107  133.179
 15.7996  17524.1  131.285
 15.9976  17465.2  133.981
 16.1956  16830.5  129.43
 16.3936  16785.3  128.427
 16.5916  16439.8  127.749
 16.7896  16488.4  127.994
 16.9876  16383.5  129.021
 17.1856  15874.3  125.408
 17.3836  15892.2  125.398
 17.5816  15330.6  123.641
 17.7796  15315.3  123.509
 17.9776  14855.3  122.404
 18.1756  14934.9  121.481
 18.3736  14884.3  121.758
 18.5716  14595  120.325
 18.7696  14447.6  119.28
 18.9676  14458.1  119.131
 19.1656  14007.3  117.834
 19.3636  14095.9  118.402
 19.5616  13966.9  118.029
 19.7596  14195  118.393
 19.9576  14637.7  120.262
 20.1556  14064  118.402
 20.3536  13511.8  115.446
 20.5516  13373.3  115.303
 20.7496  13116.9  114.126
 20.9476  13120.5  113.9
 21.1456  13059.9  113.959
 21.3436  12919  113.293
 21.5416  12865.5  113.073
 21.7396  12723.7  112.289
 21.9376  12551.5  111.299
 22.1356  12699.6  112.074
 22.3336  12453.8  111.263
 22.5316  12491.2  111.52
 22.7296  12432.3  110.627
 22.9276  12234.6  110.403
 23.1256  12464.4  110.916
 23.3236  12734.9  112.703
 23.5216  12538.4  111.465
 23.7196  12401.8  110.809
 23.9176  12596.8  111.433
 24.1156  12340  110.741
 24.3136  12004.8  110.038
 24.5116  12062  109.816
 24.7096  11665  107.816
 24.9076  11587.6  107.491
 25.1056  11105.7  105.685
 25.3036  11050.2  104.929
 25.5016  11129.8  105.343
 25.6996  11074.1  104.663
 25.8976  11048.9  104.968
 26.0956  10884.8  104.207
 26.2936  10924.5  104.055
 26.4916  11206.6  105.25
 26.6896  10831.8  103.775
 26.8876  10678.3  102.905
 27.0856  10658.7  102.863
 27.2836  10392.3  101.518
 27.4816  10217.9  100.54
 27.6796  10273.5  101.176
 27.8776  10393.7  101.63
 28.0756  10076.4  100.352
 28.2736  10090.3  100.009
 28.4716  9869.99  98.9567
 28.6696  9858.82  98.7484
 28.8676  9801.49  98.8122
 29.0656  9619.92  97.8796
 29.2636  9706.79  98.1007
 29.4616  9379.96  96.6126
 29.6596  9440.39  96.4947
 29.8576  9345.67  96.687
 30.0556  9285.54  96.2545
 30.2536  9443.08  96.8618
 30.4516  9442.79  96.5047
 30.6496  9585.77  96.9805
 30.8476  9404.44  96.4895
 31.0456  9445.64  96.6786
 31.2436  9462.82  96.0234
 31.4416  9396.52  95.8585
 31.6396  9486.89  96.3716
 31.8376  9472.47  95.82
 32.0356  9296.48  95.4809
 32.2336  9363.77  95.2476
 32.4316  8876.9  93.0757
 32.6296  8890.3  93.0314
 32.8276  9088.2  93.854
 33.0256  8861.21  92.7252
 33.2236  9075.52  93.9982
 33.4216  8875.84  92.647
 33.6196  8853.31  92.8174
 33.8176  8811.89  92.7621
 34.0156  8748.95  92.0608
 34.2136  8809.69  92.4061
 34.4116  8560.53  91.3639
 34.6096  8676.61  91.7528
 34.8076  8503.86  91.2492
 35.0056  8494.45  90.8654
 35.2036  8779.18  92.6084
 35.4016  8441.8  90.7153
 35.5996  8384.91  90.4551
 35.7976  8397.06  90.7899
 35.9956  8624.43  91.6523
 36.1936  8408.52  90.351
 36.3916  8306.82  89.9564
 36.5896  8257.11  90.7142
 36.7876  8119.32  89.3377
 36.9856  7939.43  88.373
 37.1836  8060.93  88.1605
 37.3816  8108.94  88.7849
 37.5796  8020.36  90.0202
 37.7776  8105.23  88.873
 37.9756  8103.46  88.7463
 38.1736  8094  88.8844
 38.3716  7991.48  88.5893
 38.5696  7905.12  88.4716
 38.7676  7853.13  87.7057
 38.9656  7903.08  87.6147
 39.1636  7925.61  88.0126
 39.3616  7924.63  87.932
 39.5596  7764.37  87.8706
 39.7576  7880.67  87.9125
 39.9556  7925.93  87.8059
 40.1536  7927.48  88.0077
 40.3516  7990.96  88.3789
 40.5496  7897.27  88.1082
 40.7476  8046.21  88.9355
 40.9456  7949.96  88.1555
 41.1436  8024.1  88.2972
 41.3416  7845.42  87.6026
 41.5396  7946.25  87.9404
 41.7376  7863  87.8057
 41.9356  7815.58  87.3954
 42.1336  8005.01  88.599
 42.3316  7783.75  87.558
 42.5296  7888.26  87.6685
 42.7276  7826.19  87.5628
 42.9256  7884.26  87.759
 43.1236  7850.86  87.6782
 43.3216  7849.39  87.4163
 43.5196  7738.36  86.856
 43.7176  7718.71  87.1427
 43.9156  7559.81  86.1527
 44.1136  7547.93  85.6387
 44.3116  7675  86.3695
 44.5096  7501.5  85.6948
 44.7076  7578.66  86.0639
 44.9056  7750.84  86.915
 45.1036  7621.8  85.804
 45.3016  7550.35  85.9058
 45.4996  7596.56  86.1104
 45.6976  7491.38  85.6847
 45.8956  7626.84  86.2672
 46.0936  7638.56  86.2855
 46.2916  7560.62  85.869
 46.4896  7596.98  86.1061
 46.6876  7442.76  85.9624
 46.8856  7437.64  85.1777
 47.0836  7489.51  85.7301
 47.2816  7402.18  85.101
 47.4796  7427.28  85.365
 47.6776  7360.6  85.9249
 47.8756  7372.01  85.1482
 48.0736  7403.45  85.8076
 48.2716  7335.36  85.2589
 48.4696  7407.93  85.2491
 48.6676  7571.41  86.771
 48.8656  7376.05  85.3584
 49.0636  7418.14  85.5592
 49.2616  7250.1  84.5069
 49.4596  7294.62  84.5804
 49.6576  7282.75  84.5915
 49.8556  7248.8  84.416
 50.0536  7277.29  85.0392
 50.2516  7226.59  84.8757
 50.4496  7311.49  85.0185
 50.6476  7311.93  84.686
 50.8456  7271.85  84.5349
 51.0436  7078.07  83.8638
 51.2416  7068  83.4679
 51.4396  6897.8  82.8657
 51.6376  6921.06  82.8269
 51.8356  7057.5  83.2524
 52.0336  7010.98  83.5037
 52.2316  7021.9  83.9376
 52.4296  6905.93  82.9371
 52.6276  6913.9  83.1001
 52.8256  7110.01  83.8182
 53.0236  7021.32  83.9478
 53.2216  6941.27  83.5037
 53.4196  6899.46  83.1546
 53.6176  6909.22  83.7183
 53.8156  6943.14  83.5817
 54.0136  6735.16  82.5025
 54.2116  6760.53  82.2826
 54.4096  6705.92  82.0244
 54.6076  6571.07  81.5372
 54.8056  6566.24  81.2727
 55.0036  6491.45  81.233
 55.2016  6649.22  81.7196
 55.3996  6445.13  80.4383
 55.5976  6548.82  81.2947
 55.7956  6472.56  80.6163
 55.9936  6526.06  81.087
 56.1916  6451.57  80.6445
 56.3896  6271.91  79.4923
 56.5876  6404.89  80.9084
 56.7856  6195.71  79.0662
 56.9836  6402.58  80.1458
 57.1816  6403.14  80.5053
 57.3796  6248.34  79.3418
 57.5776  6307.17  79.6195
 57.7756  6200.72  79.6146
 57.9736  6168.36  79.0602
 58.1716  6162.94  79.3006
 58.3696  5924.16  77.5068
 58.5676  6001.02  77.4702
 58.7656  6008.73  78.204
 58.9636  5847.06  77.1675
 59.1616  5923.64  77.8095
 59.3596  5976.77  77.4215
 59.5576  5936.28  77.2148
 59.7556  5806.09  76.7734
 59.9536  6011.63  78.0196
 60.1516  5920.91  78.269
 60.1996  0.0000000E+00  0.0000000E+00

File: 17_Db_f00150.xye
# /beamlines/bl04/projects/cycle2025-II/20250340211-lsimonelli/DATA/IS17_D/17_Db_f00150.xye : mythproc.py merge -s 0.006 -l 0.5 -f /beamlines/bl04/inhouse/ff/FlatField/ff_20Nov2024rod8mm60s_17keV.raw -b True -c true -o xye /beamlines/bl04/projects/cycle2025-II/20250340211-lsimonelli/DATA/IS17_D/17_Db_00150.dat
# IsMon = [6744962, 6747850, 6751607]  IsPos = [-1.5000, -2.4883, -3.4989]
# Wave = 0.4962  CalPath /beamlines/bl04/projects/cycle2025-II/20250340211-lsimonelli/DATA/Align/Si_Pos1_25keV_f00001.cal
# Date = 2025-09-25_11:29:56 Dt = 4.8000  Bin = 0.0060  <imon> = 6748140 +/- 2721 (Min/Max) 6744962 / 6751607
# icurr 250.2206  mocoIn 1.7068E-05  mocoOut 0.8010  i15 7.075e+06  imon 6.74814e+06  i7 4.3333  iEMpd_timer 4.8000  iEMpd_1 3.4186E-08  iEMpd_2 7.7280E-08  iEMpd_3 1.7542E-08  iEMpd_4 4.7697E-08  iEMhp_timer 4.8000  iEMhp_1 4.8869E-06  iEMhp_2 -2.5971E-08  iEMhp_3 -2.3502E-08  iEMhp_4 -1.9418E-08
#      9776
 1.7416  70160.8  265.017
 1.9396  49052.1  221.877
 2.1376  35763.3  189.451
 2.3356  32220.4  179.444
 2.5336  29520.3  172.366
 2.7316  27264.3  165.749
 2.9296  26008.3  162.038
 3.1276  25610  160.348
 3.3256  25233.8  158.831
 3.5236  26463  162.424
 3.7216  24063.8  156.128
 3.9196  23943.9  154.932
 4.1176  23849.5  154.421
 4.3156  24511.3  156.707
 4.5136  26935.4  163.25
 4.7116  28113.8  167.927
 4.9096  27328.3  164.998
 5.1076  27062.3  164.788
 5.3056  27193.5  164.885
 5.5036  27063.6  164.415
 5.7016  27609.9  166.021
 5.8996  28188.6  166.98
 6.0976  28880.9  170.451
 6.2956  28988.9  170.1
 6.4936  29852.3  171.808
 6.6916  29936.9  173.045
 6.8896  30711.5  175.118
 7.0876  32108.3  179.723
 7.2856  31592.3  177.402
 7.4836  32066.8  178.156
 7.6816  32713.4  180.367
 7.8796  33642.3  182.917
 8.0776  35053.7  187.69
 8.2756  36815.7  190.958
 8.4736  37538.1  192.638
 8.6716  36757.2  191.255
 8.8696  37332.5  193.261
 9.0676  36845.9  191.326
 9.2656  35844.6  189.406
 9.4636  34775.8  184.998
 9.6616  34238.3  184.294
 9.8596  33503.1  181.788
 10.0576  31543.4  177.064
 10.2556  30575  174.777
 10.4536  29625.6  171.637
 10.6516  29116  170.368
 10.8496  27855.9  166.029
 11.0476  27057.5  163.646
 11.2456  26529  162.581
 11.4436  26954.9  163.042
 11.6416  26421.6  161.765
 11.8396  25170.2  158.098
 12.0376  24488.2  155.572
 12.2356  24141.3  154.889
 12.4336  23906.6  153.68
 12.6316  24181.3  154.833
 12.8296  23950.4  153.688
 13.0276  24527.9  155.74
 13.2256  24533.4  156.132
 13.4236  24319.2  155.222
 13.6216  24816.2  156.799
 13.8196  26883.4  162.627
 14.0176  23665.2  153.097
 14.2156  23586.8  151.959
 14.4136  22259.5  149.011
 14.6116  21857.2  146.848
 14.8096  21190.9  144.569
 15.0076  20350.1  145.586
 15.2056  19435.9  138.074
 15.4036  18365.7  135.038
 15.6016  17907.9  132.443
 15.7996  17727.9  132.036
 15.9976  17650  135.294
 16.1956  17019.7  130.147
 16.3936  16777.5  128.399
 16.5916  16487.9  127.922
 16.7896  16557.4  128.256
 16.9876  16395.9  129.107
 17.1856  16182.9  126.635
 17.3836  15796.3  125.027
 17.5816  15236.3  123.26
 17.7796  15273.7  123.352
 17.9776  14850.9  122.396
 18.1756  15148.4  122.341
 18.3736  14831.9  121.546
 18.5716  14574.8  120.242
 18.7696  14517.4  119.572
 18.9676  14462.3  119.143
 19.1656  14010  117.841
 19.3636  14075  118.313
 19.5616  13944.3  117.932
 19.7596  14269.8  118.708
 19.9576  14477.9  119.599
 20.1556  14144.8  118.743
 20.3536  13775.4  116.572
 20.5516  13432.1  115.538
 20.7496  13172.3  114.287
 20.9476  13279.8  114.589
 21.1456  13057.1  113.941
 21.3436  13002.9  113.661
 21.5416  12839.9  112.959
 21.7396  12659.1  112.005
 21.9376  12622.5  111.61
 22.1356  12806.3  112.705
 22.3336  12346.4  110.785
 22.5316  12554.8  111.796
 22.7296  12463  110.766
 22.9276  12411.8  111.2
 23.1256  12344.1  110.37
 23.3236  12769.9  112.853
 23.5216  12701.3  112.179
 23.7196  12695.6  112.336
 23.9176  12566.4  111.291
 24.1156  12376.9  110.912
 24.3136  12055  110.275
 24.5116  12223.7  110.557
 24.7096  11792.3  108.404
 24.9076  11548.3  107.311
 25.1056  11294.7  106.588
 25.3036  11041.9  104.895
 25.5016  11030.4  104.876
 25.6996  11202.9  105.263
 25.8976  11058.9  105.031
 26.0956  10899.2  104.271
 26.2936  10981.6  104.332
 26.4916  11131.5  104.898
 26.6896  10825.2  103.753
 26.8876  10777.5  103.372
 27.0856  10643.5  102.782
 27.2836  10346.9  101.299
 27.4816  10233.3  100.621
 27.6796  10281.6  101.221
 27.8776  10536.8  102.331
 28.0756  10197.8  100.953
 28.2736  10050.8  99.8037
 28.4716  9978.6  99.5
 28.6696  9880.51  98.8614
 28.8676  9896.22  99.2864
 29.0656  9745.64  98.5162
 29.2636  9829.49  98.7256
 29.4616  9491.22  97.1831
 29.6596  9527.19  96.9359
 29.8576  9264.01  96.2627
 30.0556  9322.49  96.4422
 30.2536  9427.86  96.7831
 30.4516  9628.21  97.4538
 30.6496  9495.92  96.4982
 30.8476  9541.03  97.1816
 31.0456  9543.92  97.1718
 31.2436  9448.49  95.9481
 31.4416  9454.9  96.1738
 31.6396  9419.2  96.0335
 31.8376  9467.42  95.7956
 32.0356  9304.67  95.5498
 32.2336  9314.01  94.9991
 32.4316  8960.84  93.5224
 32.6296  9016.58  93.6845
 32.8276  8963.64  93.2096
 33.0256  8857.81  92.7117
 33.2236  9021.42  93.7257
 33.4216  8877.74  92.6503
 33.6196  8892.68  93.0265
 33.8176  8817.61  92.8033
 34.0156  8718.4  91.9043
 34.2136  8811.95  92.4297
 34.4116  8621.1  91.6873
 34.6096  8640.86  91.5609
 34.8076  8529.47  91.3839
 35.0056  8523.06  91.0146
 35.2036  8788.12  92.6603
 35.4016  8436.69  90.6899
 35.5996  8351.27  90.2706
 35.7976  8394.42  90.7653
 35.9956  8619.48  91.6294
 36.1936  8490.68  90.7855
 36.3916  8399.68  90.4541
 36.5896  8306.27  90.9906
 36.7876  8010.05  88.7308
 36.9856  8089.22  89.1947
 37.1836  8022.24  87.9442
 37.3816  8047.5  88.4424
 37.5796  8083.72  90.3747
 37.7776  8241.5  89.6088
 37.9756  8144.82  88.9676
 38.1736  8205.02  89.4822
 38.3716  8177.43  89.6119
 38.5696  8062.21  89.3487
 38.7676  7862.72  87.7586
 38.9656  8006.22  88.1831
 39.1636  8092.07  88.9423
 39.3616  7934.15  87.994
 39.5596  7832.89  88.2559
 39.7576  7810.28  87.5229
 39.9556  8032.8  88.3962
 40.1536  8039.68  88.6254
 40.3516  7988  88.3486
 40.5496  7938.17  88.3354
 40.7476  8063.16  89.0252
 40.9456  8098.74  88.9713
 41.1436  8168.84  89.0911
 41.3416  7890.1  87.8478
 41.5396  7885.33  87.5926
 41.7376  7861.83  87.7897
 41.9356  7851.82  87.6041
 42.1336  7936.08  88.22
 42.3316  7856.56  87.9658
 42.5296  7913.54  87.7984
 42.7276  7983.34  88.4359
 42.9256  7875.64  87.7075
 43.1236  7744.19  87.0789
 43.3216  7930.46  87.8643
 43.5196  7771.71  87.0394
 43.7176  7656.41  86.79
 43.9156  7512.07  85.879
 44.1136  7536.87  85.5745
 44.3116  7664.66  86.3048
 44.5096  7440.49  85.3422
 44.7076  7538.95  85.8339
 44.9056  7764.81  86.989
 45.1036  7649.25  85.959
 45.3016  7548.65  85.8908
 45.4996  7514.85  85.6419
 45.6976  7503.72  85.7458
 45.8956  7599.69  86.1248
 46.0936  7661.59  86.2332
 46.2916  7581.14  85.9927
 46.4896  7634.37  86.327
 46.6876  7581.33  86.7588
 46.8856  7393.31  84.9134
 47.0836  7431.21  85.3978
 47.2816  7368.68  84.9161
 47.4796  7439.51  85.4318
 47.6776  7391.62  86.1143
 47.8756  7451.34  85.6133
 48.0736  7492.93  86.3155
 48.2716  7294  85.0107
 48.4696  7453.83  85.5162
 48.6676  7445.91  86.0546
 48.8656  7450.15  85.7887
 49.0636  7526.33  86.1783
 49.2616  7332.44  84.9797
 49.4596  7296.34  84.5843
 49.6576  7276.6  84.5505
 49.8556  7248.37  84.4106
 50.0536  7270.58  84.9943
 50.2516  7250.09  85.0072
 50.4496  7248.31  84.6498
 50.6476  7285.18  84.5403
 50.8456  7303.02  84.7219
 51.0436  7125.22  84.1408
 51.2416  7133.74  83.8548
 51.4396  6921.43  83.0043
 51.6376  6943.21  82.9488
 51.8356  7051.59  83.2209
 52.0336  6961.51  83.203
 52.2316  6996.94  83.7784
 52.4296  6873.72  82.7361
 52.6276  6956.66  83.3437
 52.8256  7007.75  83.2068
 53.0236  7062.53  84.198
 53.2216  7008  83.8807
 53.4196  6985.67  83.6788
 53.6176  6946.01  83.9509
 53.8156  6894.09  83.3018
 54.0136  6653.72  81.9958
 54.2116  6879.52  83.0071
 54.4096  6603.54  81.3931
 54.6076  6638.04  81.9513
 54.8056  6547.22  81.1514
 55.0036  6629.74  81.9538
 55.2016  6475.6  80.6455
 55.3996  6416.04  80.2631
 55.5976  6538.47  81.2245
 55.7956  6523.03  80.9406
 55.9936  6577.04  81.4003
 56.1916  6419.21  80.4387
 56.3896  6339.91  79.9283
 56.5876  6258.27  79.9772
 56.7856  6279.49  79.6026
 56.9836  6318.23  79.6298
 57.1816  6356.63  80.1283
 57.3796  6276.48  79.5239
 57.5776  6345.38  79.8489
 57.7756  6167.84  79.4004
 57.9736  6199.88  79.2751
 58.1716  6186.72  79.4568
 58.3696  5945.41  77.6464
 58.5676  6049.99  77.7913
 58.7656  5966.93  77.93
 58.9636  5997.34  78.1448
 59.1616  6006.82  78.3532
 59.3596  5992.38  77.5094
 59.5576  6024.21  77.7739
 59.7556  5882.27  77.2649
 59.9536  5994.2  77.8958
 60.1516  5904.81  78.1519
 60.1996  5799.17  80.5316