Folder: echemistpy/docs/examples/opeando_xrd/IS17_D/Data/IS17_D (part 33)

File: 17_Da_f00086.xye
# /beamlines/bl04/projects/cycle2025-II/20250340211-lsimonelli/DATA/IS17_D/17_Da_f00086.xye : mythproc.py merge -s 0.006 -l 0.5 -f /beamlines/bl04/inhouse/ff/FlatField/ff_20Nov2024rod8mm60s_17keV.raw -b True -c true -o xye /beamlines/bl04/projects/cycle2025-II/20250340211-lsimonelli/DATA/IS17_D/17_Da_00086.dat
# IsMon = [6760185, 6760531, 6761465]  IsPos = [-1.4999, -2.4884, -3.4988]
# Wave = 0.4962  CalPath /beamlines/bl04/projects/cycle2025-II/20250340211-lsimonelli/DATA/Align/Si_Pos1_25keV_f00001.cal
# Date = 2025-09-24_17:30:41 Dt = 4.8000  Bin = 0.0060  <imon> = 6760727 +/- 541 (Min/Max) 6760185 / 6761465
# icurr 250.1205  mocoIn 1.7055E-05  mocoOut 0.8005  i15 7.07732e+06  imon 6.76073e+06  i7 5.6667  iEMpd_timer 4.8000  iEMpd_1 3.3867E-08  iEMpd_2 7.8129E-08  iEMpd_3 1.4952E-08  iEMpd_4 4.5270E-08  iEMhp_timer 4.8000  iEMhp_1 4.8848E-06  iEMhp_2 -2.6377E-08  iEMhp_3 -2.4668E-08  iEMhp_4 -2.2721E-08
#      9776
 1.7416  69835.5  264.351
 1.9396  45390.3  213.39
 2.1376  32067.3  179.36
 2.3356  29045.1  170.34
 2.5336  26691.3  163.867
 2.7316  25296.8  159.632
 2.9296  24076  155.902
 3.1276  23806  154.575
 3.3256  23292.1  152.57
 3.5236  25273  158.727
 3.7216  23024.8  152.731
 3.9196  22719.1  150.952
 4.1176  22694.8  150.631
 4.3156  23931  154.845
 4.5136  26230.7  161.105
 4.7116  27403.6  165.8
 4.9096  26790  163.375
 5.1076  26360.8  162.636
 5.3056  26963.7  164.216
 5.5036  26506  162.71
 5.7016  27176.5  164.724
 5.8996  27954.6  166.276
 6.0976  28467  169.234
 6.2956  29026.9  170.221
 6.4936  29500.5  170.793
 6.6916  29936.9  173.057
 6.8896  30522.8  174.599
 7.0876  31439.7  177.928
 7.2856  31448.8  177.01
 7.4836  31631.6  176.867
 7.6816  32664.8  180.269
 7.8796  34159.2  184.331
 8.0776  35188.9  188.067
 8.2756  37225.2  192.032
 8.4736  38029.6  193.912
 8.6716  37101.5  192.162
 8.8696  36906.5  192.126
 9.0676  36360.8  190.068
 9.2656  35228.4  187.773
 9.4636  34886.3  185.255
 9.6616  34220.5  184.261
 9.8596  32796.7  179.864
 10.0576  31138.5  175.918
 10.2556  30337  174.079
 10.4536  29554.9  171.422
 10.6516  29284.9  170.834
 10.8496  27943.4  166.284
 11.0476  27332.3  164.479
 11.2456  26423.3  162.256
 11.4436  26805.1  162.589
 11.6416  26024.5  160.565
 11.8396  24488.5  155.954
 12.0376  24570.2  155.852
 12.2356  24171.1  154.982
 12.4336  24200.3  154.624
 12.6316  23562.1  152.833
 12.8296  24150.1  154.369
 13.0276  24648.4  156.135
 13.2256  24594.6  156.331
 13.4236  24474.7  155.71
 13.6216  24256.2  155.035
 13.8196  24438.4  155.386
 14.0176  24038.9  154.398
 14.2156  23535  151.81
 14.4136  22307.2  149.167
 14.6116  22124.6  147.765
 14.8096  21393.6  145.287
 15.0076  20137.6  144.755
 15.2056  19940.3  139.867
 15.4036  18713.7  136.324
 15.6016  18618.9  135.053
 15.7996  18173.5  133.709
 15.9976  17576.7  134.445
 16.1956  17014.8  130.154
 16.3936  16472.3  127.243
 16.5916  16393.9  127.572
 16.7896  16247.1  127.058
 16.9876  16226.7  128.44
 17.1856  15894.6  125.491
 17.3836  15421  123.514
 17.5816  15103.6  122.721
 17.7796  14883.6  121.756
 17.9776  14946.4  122.802
 18.1756  15091.9  122.107
 18.3736  15113.6  122.703
 18.5716  14611.7  120.396
 18.7696  14703.2  120.335
 18.9676  14327.3  118.599
 19.1656  14270.6  118.926
 19.3636  14043.8  118.177
 19.5616  13969.9  118.036
 19.7596  14203.2  118.421
 19.9576  14535.7  119.855
 20.1556  14042.9  118.321
 20.3536  13623.7  115.928
 20.5516  13332.8  115.127
 20.7496  13069.6  113.922
 20.9476  12960.7  113.202
 21.1456  13258.4  114.824
 21.3436  12906.2  113.241
 21.5416  12892.4  113.189
 21.7396  12921.1  113.15
 21.9376  12807  112.417
 22.1356  12745.2  112.274
 22.3336  12706.2  112.394
 22.5316  12747.2  112.656
 22.7296  12688.6  111.763
 22.9276  12577.7  111.945
 23.1256  12803.4  112.421
 23.3236  12728  112.644
 23.5216  12535.4  111.453
 23.7196  12382.1  110.717
 23.9176  12352.6  110.331
 24.1156  12241.2  110.312
 24.3136  11754.4  108.882
 24.5116  11801.1  108.63
 24.7096  11569.2  107.377
 24.9076  11361.3  106.428
 25.1056  11129.2  105.802
 25.3036  11088.4  105.117
 25.5016  11035.5  104.9
 25.6996  11019.4  104.405
 25.8976  10968.3  104.595
 26.0956  11048.5  104.998
 26.2936  11001.1  104.415
 26.4916  10900  103.82
 26.6896  10633.7  102.839
 26.8876  10488.5  101.988
 27.0856  10664.1  102.887
 27.2836  10398.9  101.496
 27.4816  10359  101.234
 27.6796  10247.2  101.063
 27.8776  10263.3  100.99
 28.0756  10243.4  101.187
 28.2736  10067  99.8977
 28.4716  9891.11  99.0588
 28.6696  10012.7  99.5219
 28.8676  9768.88  98.6466
 29.0656  9756.31  98.5646
 29.2636  9760.18  98.3772
 29.4616  9715.6  98.3347
 29.6596  9716.09  97.9016
 29.8576  9445.83  97.2123
 30.0556  9580.98  97.7795
 30.2536  9776.94  98.5681
 30.4516  9562.53  97.1351
 30.6496  9536.77  96.7298
 30.8476  9312.08  96.0241
 31.0456  9314.5  95.9947
 31.2436  9311.27  95.2505
 31.4416  9201.34  94.8638
 31.6396  9233.92  95.0809
 31.8376  9309.07  95.0154
 32.0356  9181.61  94.9207
 32.2336  9001.71  93.3816
 32.4316  8967.43  93.6079
 32.6296  8962.25  93.4171
 32.8276  8981.32  93.2835
 33.0256  8945.14  93.1832
 33.2236  8807.65  92.6055
 33.4216  8892.29  92.7407
 33.6196  8927.71  93.2194
 33.8176  8802.25  92.7283
 34.0156  8732.32  91.9687
 34.2136  8724.96  91.9721
 34.4116  8658  91.7679
 34.6096  8749.78  92.1349
 34.8076  8591.65  91.7131
 35.0056  8617.7  91.5321
 35.2036  8483.86  91.0265
 35.4016  8487.89  90.9754
 35.5996  8384.46  90.4523
 35.7976  8467.65  91.1712
 35.9956  8419.69  90.5667
 36.1936  8429.6  90.4819
 36.3916  8264.79  89.7722
 36.5896  8216.99  90.4776
 36.7876  8271.54  90.1856
 36.9856  8261.77  90.1608
 37.1836  8138.8  88.5924
 37.3816  8213.82  89.3605
 37.5796  8216.98  91.1079
 37.7776  8066.21  88.6449
 37.9756  8030.57  88.3364
 38.1736  7991.28  88.307
 38.3716  8009.65  88.692
 38.5696  7951.08  88.7432
 38.7676  7752.19  87.1389
 38.9656  7874.58  87.4592
 39.1636  7757.43  87.0686
 39.3616  7956.35  88.1043
 39.5596  7780.68  87.9662
 39.7576  7842.58  87.6962
 39.9556  7968.3  88.0356
 40.1536  7991.16  88.3633
 40.3516  8030.19  88.5947
 40.5496  7929.06  88.2993
 40.7476  7918.73  88.243
 40.9456  8028.11  88.5943
 41.1436  7980.62  88.054
 41.3416  7920.79  88.0583
 41.5396  7757.41  86.9548
 41.7376  7900.78  88.0221
 41.9356  7846.38  87.5769
 42.1336  7870.92  87.8557
 42.3316  7725.19  87.24
 42.5296  7747.1  86.8827
 42.7276  7825.38  87.5611
 42.9256  7738.02  86.9426
 43.1236  7765.67  87.2028
 43.3216  7736.64  86.7929
 43.5196  7661.86  86.4353
 43.7176  7634.28  86.6717
 43.9156  7643.75  86.6295
 44.1136  7468.79  85.195
 44.3116  7570.91  85.7861
 44.5096  7431.34  85.3018
 44.7076  7552.94  85.9258
 44.9056  7469.14  85.3155
 45.1036  7313.96  84.0578
 45.3016  7430.8  85.2205
 45.4996  7391.85  84.9396
 45.6976  7179.56  83.8842
 45.8956  7362.59  84.7665
 46.0936  7339.71  84.6399
 46.2916  7438.18  85.1844
 46.4896  7323.1  84.5569
 46.6876  7330.92  85.312
 46.8856  7140.03  83.4589
 47.0836  7094.56  83.4379
 47.2816  6951.95  82.4787
 47.4796  7171.78  83.8749
 47.6776  6979.55  83.6796
 47.8756  6939.07  82.6248
 48.0736  7027.93  83.5988
 48.2716  6883.86  82.5617
 48.4696  6890.83  82.2014
 48.6676  6937.29  83.0505
 48.8656  6958.48  82.9103
 49.0636  6957.29  82.8522
 49.2616  6774.29  81.7951
 49.4596  6884.29  82.0261
 49.6576  6821.14  81.8698
 49.8556  6815.29  81.8533
 50.0536  6740.66  81.8343
 50.2516  6770.21  82.1531
 50.4496  6672.06  81.2167
 50.6476  6821.88  81.8109
 50.8456  6618.69  80.6697
 51.0436  6470.2  80.1868
 51.2416  6547.2  80.3417
 51.4396  6514.24  80.5242
 51.6376  6576.9  80.7418
 51.8356  6459.66  79.6601
 52.0336  6330.34  79.3519
 52.2316  6405.48  80.1669
 52.4296  6432.83  80.0321
 52.6276  6395.14  79.9096
 52.8256  6428.7  79.669
 53.0236  6403.5  80.1677
 53.2216  6296.9  79.5275
 53.4196  6231.93  79.0472
 53.6176  6261  79.7005
 53.8156  6194.06  78.9505
 54.0136  6290.96  79.736
 54.2116  6238.66  79.0739
 54.4096  6241.81  79.1425
 54.6076  6222.53  79.3643
 54.8056  6170.36  78.8236
 55.0036  6119.1  78.8785
 55.2016  6194.61  78.9167
 55.3996  6221.64  79.0542
 55.5976  6193.45  79.0627
 55.7956  6216.37  79.0276
 55.9936  6135.65  78.6419
 56.1916  6196.98  79.0631
 56.3896  6199.64  79.0647
 56.5876  6035.95  78.5595
 56.7856  5985.02  77.7195
 56.9836  6142.42  78.52
 57.1816  6053.46  78.3208
 57.3796  6112.11  78.5006
 57.5776  6141.75  78.6213
 57.7756  6082.39  78.8743
 57.9736  6053.96  78.3637
 58.1716  6118.83  79.0236
 58.3696  6037.23  78.248
 58.5676  6097.01  78.1109
 58.7656  6054.84  78.5114
 58.9636  6075.36  78.6758
 59.1616  6053.37  78.648
 59.3596  6175.45  78.7029
 59.5576  6044.56  77.9209
 59.7556  6167.26  79.1305
 59.9536  6203.95  79.263
 60.1516  6001.88  78.8076
 60.1996  0.0000000E+00  0.0000000E+00

File: 17_Da_f00087.xye
# /beamlines/bl04/projects/cycle2025-II/20250340211-lsimonelli/DATA/IS17_D/17_Da_f00087.xye : mythproc.py merge -s 0.006 -l 0.5 -f /beamlines/bl04/inhouse/ff/FlatField/ff_20Nov2024rod8mm60s_17keV.raw -b True -c true -o xye /beamlines/bl04/projects/cycle2025-II/20250340211-lsimonelli/DATA/IS17_D/17_Da_00087.dat
# IsMon = [6772711, 6770045, 6771032]  IsPos = [-1.4999, -2.4884, -3.4988]
# Wave = 0.4962  CalPath /beamlines/bl04/projects/cycle2025-II/20250340211-lsimonelli/DATA/Align/Si_Pos1_25keV_f00001.cal
# Date = 2025-09-24_17:47:14 Dt = 4.8000  Bin = 0.0060  <imon> = 6771263 +/- 1101 (Min/Max) 6770045 / 6772711
# icurr 250.9104  mocoIn 1.7107E-05  mocoOut 0.8030  i15 7.08901e+06  imon 6.77126e+06  i7 7.6667  iEMpd_timer 4.8000  iEMpd_1 3.3588E-08  iEMpd_2 7.8674E-08  iEMpd_3 1.6599E-08  iEMpd_4 4.6594E-08  iEMhp_timer 4.8000  iEMhp_1 4.9004E-06  iEMhp_2 -2.5864E-08  iEMhp_3 -2.4300E-08  iEMhp_4 -2.1453E-08
#      9776
 1.7416  70207.7  265.015
 1.9396  45534.7  213.705
 2.1376  32218  179.754
 2.3356  28881.5  169.834
 2.5336  26785.9  164.132
 2.7316  25458.2  160.136
 2.9296  24186.7  156.255
 3.1276  23720.4  154.288
 3.3256  23597.1  153.565
 3.5236  25227  158.582
 3.7216  23147.2  153.137
 3.9196  22682.7  150.83
 4.1176  22706.7  150.665
 4.3156  24078.6  155.327
 4.5136  26287  161.281
 4.7116  27564.1  166.288
 4.9096  26826  163.487
 5.1076  26432.7  162.852
 5.3056  26910.2  164.052
 5.5036  26893.2  163.895
 5.7016  27399.4  165.397
 5.8996  27953.1  166.266
 6.0976  28502.5  169.336
 6.2956  29141.8  170.564
 6.4936  29550.8  170.945
 6.6916  29724.7  172.444
 6.8896  30670  175.021
 7.0876  31597.7  178.374
 7.2856  31397.2  176.871
 7.4836  31944.3  177.737
 7.6816  32734.4  180.457
 7.8796  34138.9  184.293
 8.0776  35544.6  189.032
 8.2756  37460  192.654
 8.4736  38138.9  194.198
 8.6716  37234.7  192.52
 8.8696  37472.7  193.584
 9.0676  36285.9  189.866
 9.2656  35183.4  187.637
 9.4636  35274  186.291
 9.6616  34278  184.418
 9.8596  32884.9  180.099
 10.0576  31269.4  176.296
 10.2556  30340.6  174.084
 10.4536  29453.2  171.122
 10.6516  28876  169.631
 10.8496  28076.9  166.675
 11.0476  27221.7  164.149
 11.2456  26426.8  162.269
 11.4436  26859  162.745
 11.6416  26198.6  161.099
 11.8396  24818.1  156.992
 12.0376  24710.1  156.297
 12.2356  24154.1  154.934
 12.4336  24121.3  154.363
 12.6316  23702.8  153.279
 12.8296  24090.9  154.18
 13.0276  24518.3  155.726
 13.2256  24562.3  156.227
 13.4236  24536.4  155.912
 13.6216  24441.3  155.621
 13.8196  24359.1  155.132
 14.0176  24065.6  154.486
 14.2156  23455.1  151.556
 14.4136  22480.2  149.747
 14.6116  21935.2  147.131
 14.8096  21462.9  145.527
 15.0076  20251  145.163
 15.2056  20046.1  140.249
 15.4036  19015.6  137.423
 15.6016  18844.2  135.879
 15.7996  18171.2  133.709
 15.9976  17407.3  133.798
 16.1956  16900.5  129.711
 16.3936  16692.5  128.084
 16.5916  16423.3  127.68
 16.7896  16398.3  127.643
 16.9876  16275.9  128.637
 17.1856  15889.9  125.476
 17.3836  15462.2  123.669
 17.5816  15150.3  122.908
 17.7796  14934.7  121.958
 17.9776  14866.3  122.472
 18.1756  15174  122.43
 18.3736  15193.1  123.029
 18.5716  14731.6  120.888
 18.7696  14505.4  119.529
 18.9676  14412.9  118.944
 19.1656  14197.1  118.62
 19.3636  14127.6  118.535
 19.5616  14051.4  118.385
 19.7596  14178.5  118.312
 19.9576  14565.9  119.978
 20.1556  14210.6  119.034
 20.3536  13765  116.522
 20.5516  13439  115.587
 20.7496  13271.6  114.798
 20.9476  13133.6  113.947
 21.1456  13196.3  114.561
 21.3436  12976.2  113.549
 21.5416  13047.8  113.864
 21.7396  12793.3  112.594
 21.9376  12848.6  112.6
 22.1356  12812.2  112.57
 22.3336  12598  111.924
 22.5316  12775.6  112.793
 22.7296  12731.8  111.953
 22.9276  12658.9  112.319
 23.1256  12916.2  112.925
 23.3236  12646.3  112.296
 23.5216  12657.1  111.987
 23.7196  12526.3  111.358
 23.9176  12398.5  110.528
 24.1156  12291.9  110.535
 24.3136  11820.2  109.187
 24.5116  11894.4  109.055
 24.7096  11556.6  107.314
 24.9076  11467.2  106.922
 25.1056  11253.8  106.389
 25.3036  11133.5  105.333
 25.5016  10990.9  104.688
 25.6996  11064.4  104.618
 25.8976  11067.2  105.061
 26.0956  11008.1  104.805
 26.2936  10935.9  104.111
 26.4916  11175.8  105.125
 26.6896  10596.8  102.66
 26.8876  10593.3  102.493
 27.0856  10626.1  102.71
 27.2836  10559.9  102.278
 27.4816  10266.4  100.776
 27.6796  10320.7  101.423
 27.8776  10216.8  100.762
 28.0756  10273.5  101.337
 28.2736  10160.3  100.358
 28.4716  9891.12  99.0641
 28.6696  9975.62  99.338
 28.8676  9910.26  99.3573
 29.0656  9788.05  98.722
 29.2636  9741.98  98.2858
 29.4616  9691.51  98.2188
 29.6596  9786.94  98.2653
 29.8576  9511.65  97.5576
 30.0556  9601.49  97.8848
 30.2536  9593.28  97.6453
 30.4516  9592.2  97.2811
 30.6496  9582.1  96.9571
 30.8476  9567.37  97.3256
 31.0456  9373.07  96.2917
 31.2436  9338.25  95.3771
 31.4416  9169.51  94.6965
 31.6396  9373.75  95.7941
 31.8376  9331.24  95.1219
 32.0356  9133.91  94.6764
 32.2336  8999.6  93.3672
 32.4316  9133.25  94.4693
 32.6296  8927.86  93.239
 32.8276  9029.18  93.5393
 33.0256  9020.65  93.5733
 33.2236  8886.98  93.0184
 33.4216  8967.21  93.1352
 33.6196  8910.81  93.1316
 33.8176  8851.11  92.9861
 34.0156  8786.56  92.2606
 34.2136  8809.75  92.4169
 34.4116  8666.43  91.8156
 34.6096  8581.15  91.245
 34.8076  8530.09  91.3713
 35.0056  8504.63  90.9318
 35.2036  8482.85  91.0194
 35.4016  8508.38  91.0873
 35.5996  8385.12  90.4574
 35.7976  8401  90.8201
 35.9956  8470.92  90.8375
 36.1936  8395.43  90.3034
 36.3916  8297.17  89.9473
 36.5896  8263.22  90.7307
 36.7876  8411.23  90.9504
 36.9856  8212.64  89.8955
 37.1836  8238.89  89.1415
 37.3816  8272.59  89.6875
 37.5796  8171.84  90.8605
 37.7776  8120.15  88.9384
 37.9756  8070.19  88.5467
 38.1736  8107.18  88.9507
 38.3716  8096  89.1655
 38.5696  8000.71  89.0173
 38.7676  7933.57  88.1487
 38.9656  7796.02  87.0185
 39.1636  7790.32  87.2448
 39.3616  7922.05  87.9227
 39.5596  7847.02  88.3348
 39.7576  7779.74  87.345
 39.9556  7947  87.919
 40.1536  8008.22  88.4575
 40.3516  8085.32  88.8939
 40.5496  7943.3  88.373
 40.7476  7985.82  88.6153
 40.9456  8001.8  88.444
 41.1436  7997.05  88.1424
 41.3416  7903.71  87.9657
 41.5396  7948.41  88.0179
 41.7376  7874.51  87.8752
 41.9356  7711.25  86.8203
 42.1336  7875.71  87.8832
 42.3316  7909.23  88.2761
 42.5296  7843.48  87.4205
 42.7276  7868.19  87.7945
 42.9256  7747.48  86.9925
 43.1236  7718.95  86.9402
 43.3216  7803.99  87.1655
 43.5196  7675.52  86.5116
 43.7176  7777.64  87.4808
 43.9156  7665.46  86.7642
 44.1136  7555.89  85.697
 44.3116  7574.28  85.8123
 44.5096  7589.55  86.2069
 44.7076  7423.76  85.1937
 44.9056  7720.24  86.7358
 45.1036  7453.48  84.8517
 45.3016  7363.45  84.8332
 45.4996  7362.1  84.7654
 45.6976  7177.11  83.8675
 45.8956  7444.03  85.2292
 46.0936  7330.54  84.5789
 46.2916  7391.39  84.9117
 46.4896  7402.38  85.0075
 46.6876  7213.52  84.6247
 46.8856  7182.26  83.7001
 47.0836  7147.14  83.7444
 47.2816  7034.57  82.9681
 47.4796  7104.96  83.4802
 47.6776  7045.4  84.0741
 47.8756  7104.89  83.6071
 48.0736  7113.15  84.1061
 48.2716  6924.7  82.8061
 48.4696  7065.56  83.2421
 48.6676  7018.02  83.5417
 48.8656  6991.41  83.1067
 49.0636  6999.92  83.0937
 49.2616  6815.17  82.0491
 49.4596  6943.81  82.3774
 49.6576  6831.47  81.937
 49.8556  6912.91  82.4376
 50.0536  6791.01  82.1441
 50.2516  6779.91  82.2125
 50.4496  6764.92  81.7814
 50.6476  6830.23  81.859
 50.8456  6771.37  81.5817
 51.0436  6609.79  81.0496
 51.2416  6656.84  81.016
 51.4396  6429.54  80.0117
 51.6376  6640.44  81.1373
 51.8356  6533.91  80.1225
 52.0336  6388.14  79.7107
 52.2316  6436.31  80.3514
 52.4296  6519.18  80.5691
 52.6276  6442.75  80.2045
 52.8256  6427.05  79.6679
 53.0236  6273.7  79.3485
 53.2216  6310.77  79.6132
 53.4196  6301.07  79.481
 53.6176  6246.7  79.608
 53.8156  6266.14  79.4058
 54.0136  6319.52  79.9194
 54.2116  6337.7  79.6923
 54.4096  6296.6  79.4924
 54.6076  6177.78  79.0787
 54.8056  6203.36  79.0343
 55.0036  6158.41  79.1342
 55.2016  6198.95  78.9395
 55.3996  6195.1  78.8922
 55.5976  6158.84  78.8365
 55.7956  6250.99  79.2495
 55.9936  6060.18  78.1605
 56.1916  6163.41  78.8403
 56.3896  6209.3  79.1285
 56.5876  6072.23  78.7946
 56.7856  6088.68  78.39
 56.9836  6063.06  78.0056
 57.1816  6173.05  79.0884
 57.3796  6104.96  78.4574
 57.5776  6182.4  78.8825
 57.7756  5995.52  78.303
 57.9736  6060.32  78.4064
 58.1716  6150.84  79.2316
 58.3696  6042.26  78.2805
 58.5676  6188.45  78.7043
 58.7656  6198.32  79.4338
 58.9636  6062.25  78.5975
 59.1616  6142.59  79.2423
 59.3596  6206.23  78.9045
 59.5576  6359  79.9277
 59.7556  6056.86  78.4246
 59.9536  6284.82  79.7837
 60.1516  6129.33  79.6457
 60.1996  0.0000000E+00  0.0000000E+00