Folder: echemistpy/docs/examples/opeando_xrd/IS17_D/Data/IS17_D (part 69)

File: 17_Db_f00023.xye
# /beamlines/bl04/projects/cycle2025-II/20250340211-lsimonelli/DATA/IS17_D/17_Db_f00023.xye : mythproc.py merge -s 0.006 -l 0.5 -f /beamlines/bl04/inhouse/ff/FlatField/ff_20Nov2024rod8mm60s_17keV.raw -b True -c true -o xye /beamlines/bl04/projects/cycle2025-II/20250340211-lsimonelli/DATA/IS17_D/17_Db_00023.dat
# IsMon = [6762345, 6766039, 6762150]  IsPos = [-1.4999, -2.4885, -3.4988]
# Wave = 0.4962  CalPath /beamlines/bl04/projects/cycle2025-II/20250340211-lsimonelli/DATA/Align/Si_Pos1_25keV_f00001.cal
# Date = 2025-09-24_00:06:32 Dt = 4.8000  Bin = 0.0060  <imon> = 6763511 +/- 1789 (Min/Max) 6762150 / 6766039
# icurr 251.0051  mocoIn 1.7130E-05  mocoOut 0.8039  i15 7.08193e+06  imon 6.76351e+06  i7 3.3333  iEMpd_timer 4.8000  iEMpd_1 3.5328E-08  iEMpd_2 7.7900E-08  iEMpd_3 1.6182E-08  iEMpd_4 4.7942E-08  iEMhp_timer 4.8000  iEMhp_1 4.9041E-06  iEMhp_2 -2.4172E-08  iEMhp_3 -2.3082E-08  iEMhp_4 -2.1371E-08
#      9776
 1.7416  69877  264.441
 1.9396  47799.9  218.986
 2.1376  34549.8  186.181
 2.3356  31042.3  176.107
 2.5336  29306.7  171.715
 2.7316  26546.7  163.524
 2.9296  25157.5  159.348
 3.1276  24816.2  157.803
 3.3256  24040.5  154.973
 3.5236  25520  159.618
 3.7216  23337.2  153.755
 3.9196  23078.2  152.102
 4.1176  22862.6  151.192
 4.3156  23824.4  154.509
 4.5136  26302.6  161.315
 4.7116  27298.8  165.48
 4.9096  26642.1  162.912
 5.1076  26470.7  162.964
 5.3056  26457  162.65
 5.5036  26040.1  161.361
 5.7016  26666.9  163.164
 5.8996  26926.8  163.201
 6.0976  27926.2  167.601
 6.2956  27863.8  166.766
 6.4936  28660.3  168.343
 6.6916  29035.4  170.408
 6.8896  29786.7  172.453
 7.0876  30561.2  175.425
 7.2856  30586.4  174.551
 7.4836  30843.9  174.635
 7.6816  31660.7  177.449
 7.8796  32225  179.03
 8.0776  34245.8  185.529
 8.2756  35407.7  187.301
 8.4736  36023.2  188.725
 8.6716  35301.4  187.425
 8.8696  35897.2  189.529
 9.0676  35458.3  187.696
 9.2656  33970.7  184.393
 9.4636  33083.4  180.474
 9.6616  32240.8  178.868
 9.8596  31852.4  177.218
 10.0576  29740  171.876
 10.2556  28792.6  169.572
 10.4536  29165.9  170.262
 10.6516  29720.6  172.089
 10.8496  26765.1  162.748
 11.0476  25644.3  159.265
 11.2456  25917.9  160.694
 11.4436  25357.3  158.132
 11.6416  25069.2  157.566
 11.8396  23811.2  153.767
 12.0376  23149.3  151.25
 12.2356  23308.3  152.22
 12.4336  23029.5  150.831
 12.6316  22790  150.306
 12.8296  23026.5  150.712
 13.0276  23255.7  151.654
 13.2256  23302.9  152.163
 13.4236  23384.5  152.206
 13.6216  23747.3  153.382
 13.8196  26211.1  160.569
 14.0176  22707.1  150.058
 14.2156  22351.8  147.928
 14.4136  21323.7  145.844
 14.6116  21121.5  144.364
 14.8096  20203.6  141.176
 15.0076  19471.1  142.407
 15.2056  18591.8  135.051
 15.4036  17738.4  132.723
 15.6016  17308.9  130.216
 15.7996  16929.7  129.054
 15.9976  16638.5  130.765
 16.1956  16411.3  127.802
 16.3936  16036.5  125.535
 16.5916  15750.3  125.049
 16.7896  15896.5  125.687
 16.9876  15699.3  126.316
 17.1856  15358.2  123.344
 17.3836  14964.3  121.667
 17.5816  14730.8  121.186
 17.7796  14605.5  120.597
 17.9776  14356.5  120.339
 18.1756  14602.6  120.122
 18.3736  14495  120.149
 18.5716  13904.4  117.442
 18.7696  14025.4  117.525
 18.9676  13764.1  116.228
 19.1656  13318.2  114.905
 19.3636  13307.3  115.036
 19.5616  13297  115.166
 19.7596  13462.5  115.286
 19.9576  13915.7  117.259
 20.1556  13336.7  115.295
 20.3536  13203.1  114.122
 20.5516  12983.4  113.585
 20.7496  12544.8  111.603
 20.9476  12643  111.807
 21.1456  12718.3  112.458
 21.3436  12347.9  110.755
 21.5416  12243.4  110.305
 21.7396  12179.9  109.863
 21.9376  12098.8  109.28
 22.1356  12284.1  110.223
 22.3336  11930  108.885
 22.5316  11961.6  109.139
 22.7296  11982  108.607
 22.9276  11764  108.264
 23.1256  11951.9  108.624
 23.3236  12051.7  109.644
 23.5216  12221.6  110.055
 23.7196  12010.4  109.052
 23.9176  12142.2  109.403
 24.1156  11790.4  108.248
 24.3136  11482.4  107.608
 24.5116  11776.3  108.495
 24.7096  11269.8  105.966
 24.9076  11188.5  105.612
 25.1056  10847.5  104.165
 25.3036  10587  102.703
 25.5016  10648.8  103.044
 25.6996  10629  102.541
 25.8976  10748.6  103.539
 26.0956  10500.8  102.356
 26.2936  10526.6  102.133
 26.4916  10691.5  102.8
 26.6896  10482.9  102.098
 26.8876  10193.8  100.535
 27.0856  10137.4  100.275
 27.2836  10100.2  100.023
 27.4816  9985.61  99.3854
 27.6796  9904.18  99.3419
 27.8776  10195  100.65
 28.0756  9717.67  98.5488
 28.2736  9855.76  98.8424
 28.4716  9514.8  97.1646
 28.6696  9576.73  97.3164
 28.8676  9480.15  97.1821
 29.0656  9329.33  96.38
 29.2636  9380.86  96.3664
 29.4616  9024.89  94.7719
 29.6596  9168.88  95.0995
 29.8576  8946.5  94.6053
 30.0556  9110.08  95.3481
 30.2536  9013.73  94.6382
 30.4516  9117.74  94.8336
 30.6496  9250.64  95.267
 30.8476  9429.54  96.6276
 31.0456  9168.69  95.2426
 31.2436  9201.87  94.6941
 31.4416  9096.71  94.3166
 31.6396  9125.77  94.5124
 31.8376  9138.17  94.1045
 32.0356  8967.18  93.7639
 32.2336  9023.14  93.4796
 32.4316  8636.69  91.858
 32.6296  8661.65  91.765
 32.8276  8709.18  91.8769
 33.0256  8563.2  91.1586
 33.2236  8641.99  91.7205
 33.4216  8571.52  91.0501
 33.6196  8462.71  90.7418
 33.8176  8522.85  91.2343
 34.0156  8398.2  90.202
 34.2136  8541.61  90.9907
 34.4116  8207.13  89.3495
 34.6096  8284.4  89.6549
 34.8076  8195.83  89.5804
 35.0056  8190.8  89.2193
 35.2036  8320.47  90.1549
 35.4016  8145.61  89.1133
 35.5996  8130.84  89.0708
 35.7976  8074.92  89.0251
 35.9956  8250.2  89.6472
 36.1936  8256.89  89.5322
 36.3916  7957.19  88.0838
 36.5896  8058.88  90.0841
 36.7876  7806.34  87.605
 36.9856  7687.92  86.9713
 37.1836  7661.69  85.9531
 37.3816  7809.05  87.1379
 37.5796  7816.52  88.8671
 37.7776  7955.84  88.0415
 37.9756  7925.43  87.7648
 38.1736  7996.13  88.3384
 38.3716  7709.87  87.01
 38.5696  7735.35  87.5192
 38.7676  7614.47  86.3525
 38.9656  7785.56  86.9493
 39.1636  7765.5  87.0745
 39.3616  7690.48  86.616
 39.5596  7562.45  86.7256
 39.7576  7439.8  85.4199
 39.9556  7666.97  86.3591
 40.1536  7777.97  87.1805
 40.3516  7760.37  87.0793
 40.5496  7616.67  86.3222
 40.7476  7792.17  87.5271
 40.9456  7686.64  86.6848
 41.1436  7785.83  86.9734
 41.3416  7623  86.3858
 41.5396  7604.97  86.0918
 41.7376  7708.75  86.9304
 41.9356  7638.05  86.3961
 42.1336  7787.37  87.3738
 42.3316  7559.26  86.2842
 42.5296  7512.21  85.5406
 42.7276  7540.06  85.9481
 42.9256  7540.3  85.8143
 43.1236  7515.66  85.7787
 43.3216  7566.98  85.9293
 43.5196  7378.81  84.8123
 43.7176  7473.86  85.7455
 43.9156  7102.22  83.5087
 44.1136  7285.83  84.1432
 44.3116  7354.64  84.5544
 44.5096  7286.41  84.4633
 44.7076  7314.45  84.5558
 44.9056  7483.35  85.4045
 45.1036  7305  84.0109
 45.3016  7328.26  84.6332
 45.4996  7284.26  84.3272
 45.6976  7177.13  83.879
 45.8956  7321.12  84.5159
 46.0936  7467.12  85.3635
 46.2916  7279.45  84.259
 46.4896  7241.52  84.0651
 46.6876  7174.25  84.3856
 46.8856  7216.7  83.8943
 47.0836  7242.73  84.3052
 47.2816  7100.19  83.3453
 47.4796  7149.18  83.7447
 47.6776  7083.28  84.3055
 47.8756  7021.92  83.1148
 48.0736  7174.68  84.4681
 48.2716  7048.78  83.5392
 48.4696  7196.21  83.9916
 48.6676  7202.82  84.634
 48.8656  7144.01  84.0189
 49.0636  7245.21  84.5537
 49.2616  7024.85  83.2916
 49.4596  7179.23  83.7627
 49.6576  7059.82  83.2861
 49.8556  7056.56  83.2899
 50.0536  7127.29  84.156
 50.2516  6976.84  83.3715
 50.4496  7016.09  83.2778
 50.6476  7121.64  83.5844
 50.8456  7035.8  83.1549
 51.0436  6878.13  82.6757
 51.2416  6710.1  81.3377
 51.4396  6691.77  81.6233
 51.6376  6824.54  82.2387
 51.8356  6803.51  81.7371
 52.0336  6733.85  81.8444
 52.2316  6699.63  81.9845
 52.4296  6723.54  81.8432
 52.6276  6745.69  82.0848
 52.8256  6804.37  81.9999
 53.0236  6748.6  82.2882
 53.2216  6778.31  82.5013
 53.4196  6687.44  81.8368
 53.6176  6774.87  82.887
 53.8156  6659.81  81.8569
 54.0136  6468.33  80.8399
 54.2116  6570.89  81.1152
 54.4096  6366.92  79.9164
 54.6076  6441.67  80.7249
 54.8056  6349.63  79.924
 55.0036  6331.59  80.2152
 55.2016  6440.27  80.4122
 55.3996  6185.8  78.8019
 55.5976  6195.65  79.0674
 55.7956  6230.54  79.099
 55.9936  6378.84  80.1487
 56.1916  6216.32  79.1637
 56.3896  6102.84  78.4144
 56.5876  6024.78  78.4589
 56.7856  6034.63  78.0438
 56.9836  6114.64  78.3229
 57.1816  6190.37  79.1782
 57.3796  6049.79  78.0735
 57.5776  6080.9  78.1615
 57.7756  5936.78  77.9069
 57.9736  5933.79  77.546
 58.1716  5939.06  77.8445
 58.3696  5723.48  76.1845
 58.5676  5861.48  76.5844
 58.7656  5717.71  76.2925
 58.9636  5739.63  76.4617
 59.1616  5784.47  76.8929
 59.3596  5764.17  76.0476
 59.5576  5734.81  75.9099
 59.7556  5734.78  76.3174
 59.9536  5857.27  77.0285
 60.1516  5565.93  75.9034
 60.1996  0.0000000E+00  0.0000000E+00

File: 17_Db_f00024.xye
# /beamlines/bl04/projects/cycle2025-II/20250340211-lsimonelli/DATA/IS17_D/17_Db_f00024.xye : mythproc.py merge -s 0.006 -l 0.5 -f /beamlines/bl04/inhouse/ff/FlatField/ff_20Nov2024rod8mm60s_17keV.raw -b True -c true -o xye /beamlines/bl04/projects/cycle2025-II/20250340211-lsimonelli/DATA/IS17_D/17_Db_00024.dat
# IsMon = [6775737, 6771630, 6770794]  IsPos = [-1.5000, -2.4885, -3.4986]
# Wave = 0.4962  CalPath /beamlines/bl04/projects/cycle2025-II/20250340211-lsimonelli/DATA/Align/Si_Pos1_25keV_f00001.cal
# Date = 2025-09-24_00:23:05 Dt = 4.8000  Bin = 0.0060  <imon> = 6772720 +/- 2160 (Min/Max) 6770794 / 6775737
# icurr 251.7914  mocoIn 1.7188E-05  mocoOut 0.8073  i15 7.09222e+06  imon 6.77272e+06  i7 3.6667  iEMpd_timer 4.8000  iEMpd_1 3.5511E-08  iEMpd_2 7.8778E-08  iEMpd_3 1.7464E-08  iEMpd_4 4.7818E-08  iEMhp_timer 4.8000  iEMhp_1 4.9219E-06  iEMhp_2 -2.4040E-08  iEMhp_3 -2.4362E-08  iEMhp_4 -2.1865E-08
#      9776
 1.7416  69617  263.867
 1.9396  47905.6  219.166
 2.1376  34678.3  186.47
 2.3356  30975.1  175.862
 2.5336  29081  171
 2.7316  26510.7  163.41
 2.9296  25291.1  159.762
 3.1276  24876.2  157.978
 3.3256  24059.1  155.049
 3.5236  25980.6  161.053
 3.7216  23603.2  154.625
 3.9196  23047.9  152.012
 4.1176  23000.3  151.637
 4.3156  23857.8  154.619
 4.5136  26612.2  162.272
 4.7116  27374.5  165.708
 4.9096  26901.3  163.7
 5.1076  26633  163.452
 5.3056  26791.5  163.558
 5.5036  26368.9  162.313
 5.7016  26801.4  163.579
 5.8996  27187.2  163.988
 6.0976  28134  168.207
 6.2956  28191.7  167.755
 6.4936  28937.3  169.139
 6.6916  29157.5  170.772
 6.8896  29994.6  173.044
 7.0876  31235  177.24
 7.2856  30550.8  174.452
 7.4836  30959  174.969
 7.6816  31704.4  177.562
 7.8796  32213.8  179.03
 8.0776  34351.7  185.844
 8.2756  35474.6  187.502
 8.4736  36096.8  188.947
 8.6716  35369.3  187.642
 8.8696  36252.6  190.438
 9.0676  35298.5  187.249
 9.2656  34262.6  185.172
 9.4636  33437.7  181.424
 9.6616  32448.7  179.429
 9.8596  31966.3  177.527
 10.0576  29981.2  172.589
 10.2556  29182.8  170.715
 10.4536  29013.3  169.819
 10.6516  28739.4  169.223
 10.8496  26712.7  162.581
 11.0476  25843.4  159.889
 11.2456  25463.2  159.285
 11.4436  25530.4  158.674
 11.6416  24972.1  157.256
 11.8396  23909.6  154.061
 12.0376  23499.8  152.395
 12.2356  23464.1  152.729
 12.4336  23252.7  151.559
 12.6316  22964.7  150.859
 12.8296  23064.4  150.828
 13.0276  23402.2  152.137
 13.2256  23570.2  153.033
 13.4236  23411.9  152.299
 13.6216  23858.9  153.721
 13.8196  26088.2  160.183
 14.0176  22739.4  150.177
 14.2156  22489.5  148.384
 14.4136  21368.5  145.998
 14.6116  21046.7  144.103
 14.8096  20348.9  141.679
 15.0076  19592.5  142.839
 15.2056  18671.1  135.354
 15.4036  17678.4  132.51
 15.6016  17452.2  130.777
 15.7996  17003.5  129.352
 15.9976  16749.3  131.214
 16.1956  16441.7  127.905
 16.3936  16055.3  125.592
 16.5916  15899.3  125.613
 16.7896  15835.6  125.418
 16.9876  15675.3  126.213
 17.1856  15411  123.562
 17.3836  14917.7  121.475
 17.5816  14604.8  120.66
 17.7796  14587.4  120.522
 17.9776  14404.1  120.544
 18.1756  14546.6  119.888
 18.3736  14429.5  119.886
 18.5716  14009.8  117.888
 18.7696  13963.8  117.27
 18.9676  13863.3  116.629
 19.1656  13388.3  115.209
 19.3636  13307.4  115.041
 19.5616  13399.2  115.6
 19.7596  13646  116.065
 19.9576  13945.1  117.383
 20.1556  13441.7  115.759
 20.3536  13135.9  113.831
 20.5516  12805.2  112.814
 20.7496  12605.4  111.786
 20.9476  12774.5  112.376
 21.1456  12655.1  112.181
 21.3436  12498.6  111.436
 21.5416  12295.3  110.535
 21.7396  12278.5  110.304
 21.9376  12127.1  109.402
 22.1356  12186.5  109.817
 22.3336  11894  108.735
 22.5316  12141  109.969
 22.7296  11955.9  108.511
 22.9276  11725.4  108.103
 23.1256  12152.2  109.544
 23.3236  12151.3  110.081
 23.5216  12368.5  110.7
 23.7196  12284.1  110.481
 23.9176  12162.9  109.474
 24.1156  11829.1  108.402
 24.3136  11518.5  107.775
 24.5116  11697.7  108.118
 24.7096  11197.6  105.622
 24.9076  11289.3  106.073
 25.1056  10900.4  104.433
 25.3036  10691.3  103.214
 25.5016  10794.5  103.745
 25.6996  10735.8  103.047
 25.8976  10789.1  103.721
 26.0956  10617.6  102.921
 26.2936  10541.2  102.216
 26.4916  10872.4  103.668
 26.6896  10461  101.981
 26.8876  10389.9  101.49
 27.0856  10196.9  100.577
 27.2836  10048.3  99.9283
 27.4816  10029.1  99.6116
 27.6796  9925.41  99.4549
 27.8776  10214.1  100.727
 28.0756  9747.07  98.7061
 28.2736  9731.82  98.217
 28.4716  9728.55  98.2505
 28.6696  9614.15  97.5125
 28.8676  9534.97  97.4544
 29.0656  9337.51  96.4225
 29.2636  9550.28  97.222
 29.4616  8973.52  94.5171
 29.6596  9174.13  95.1445
 29.8576  8925.16  94.5057
 30.0556  9011.35  94.8365
 30.2536  9192.37  95.588
 30.4516  9380.26  96.1823
 30.6496  9141.06  94.6888
 30.8476  9207.32  95.4726
 31.0456  9278.74  95.7959
 31.2436  9206  94.6963
 31.4416  9055.94  94.1039
 31.6396  9112.03  94.4392
 31.8376  9106.18  93.9293
 32.0356  9028.48  94.1113
 32.2336  9062.81  93.6837
 32.4316  8675.14  92.0659
 32.6296  8675.43  91.8403
 32.8276  8638.34  91.5022
 33.0256  8581.65  91.2528
 33.2236  8619.99  91.603
 33.4216  8547.01  90.9191
 33.6196  8408.65  90.4643
 33.8176  8555.8  91.4099
 34.0156  8380.81  90.1075
 34.2136  8476.4  90.628
 34.4116  8253.75  89.6136
 34.6096  8400.25  90.2745
 34.8076  8184.43  89.5179
 35.0056  8370.81  90.2058
 35.2036  8459.58  90.8963
 35.4016  8174.09  89.2687
 35.5996  8150.45  89.1746
 35.7976  8107.81  89.2157
 35.9956  8229.85  89.5306
 36.1936  8139.42  88.8826
 36.3916  8120.74  88.9868
 36.5896  8112.77  90.3766
 36.7876  7736.37  87.2287
 36.9856  7660.22  86.8178
 37.1836  7820.81  86.8553
 37.3816  7768.45  86.9215
 37.5796  7798.05  88.76
 37.7776  7903.99  87.7468
 37.9756  7878.64  87.4894
 38.1736  7869.79  87.638
 38.3716  7776.89  87.3791
 38.5696  7743.23  87.5632
 38.7676  7647.52  86.5393
 38.9656  7716.62  86.5645
 39.1636  7755.56  87.0188
 39.3616  7658.76  86.4423
 39.5596  7627.6  87.0933
 39.7576  7496.26  85.7444
 39.9556  7744.24  86.7953
 40.1536  7804.39  87.3139
 40.3516  7660.2  86.6005
 40.5496  7752.58  87.0882
 40.7476  7769.41  87.3965
 40.9456  7773.26  87.1707
 41.1436  7815.14  87.1317
 41.3416  7606.55  86.2966
 41.5396  7654.91  86.38
 41.7376  7610.23  86.3783
 41.9356  7557.6  85.9389
 42.1336  7724.53  87.0178
 42.3316  7511.79  86.0271
 42.5296  7695.1  86.5878
 42.7276  7629.27  86.4539
 42.9256  7537.55  85.81
 43.1236  7476.26  85.5514
 43.3216  7614.27  86.1961
 43.5196  7494.74  85.4762
 43.7176  7558.95  86.2375
 43.9156  7234.63  84.2959
 44.1136  7410.69  84.8746
 44.3116  7369.85  84.6556
 44.5096  7175.72  83.8295
 44.7076  7379.59  84.9423
 44.9056  7411.79  84.9857
 45.1036  7422.14  84.668
 45.3016  7279.08  84.3394
 45.4996  7465.17  85.3547
 45.6976  7331.99  84.7685
 45.8956  7312.06  84.4652
 46.0936  7434.1  84.9226
 46.2916  7421.66  85.0661
 46.4896  7486.83  85.4778
 46.6876  7365.19  85.4993
 46.8856  7242.52  84.1708
 47.0836  7216.76  84.1482
 47.2816  7115.59  83.4459
 47.4796  7245.04  84.3031
 47.6776  7131.83  84.5832
 47.8756  7118  83.6825
 48.0736  7175.26  84.4437
 48.2716  7056.34  83.5874
 48.4696  7232.72  84.2096
 48.6676  7111.74  84.0903
 48.8656  7217.46  84.442
 49.0636  7189.86  84.2181
 49.2616  7044.42  83.4102
 49.4596  7111.89  83.3716
 49.6576  6974.76  82.7841
 49.8556  7121  83.6683
 50.0536  7071.37  83.8206
 50.2516  7057.87  83.8556
 50.4496  7080.67  83.6672
 50.6476  7146.83  83.7358
 50.8456  7048.31  83.2263
 51.0436  6902.12  82.8312
 51.2416  6837.21  82.117
 51.4396  6784.05  82.1964
 51.6376  6718.46  81.6179
 51.8356  6819.28  81.8511
 52.0336  6748.76  81.9181
 52.2316  6772.34  82.4232
 52.4296  6701.56  81.7015
 52.6276  6784.16  82.3139
 52.8256  6826.82  82.1255
 53.0236  6825.57  82.7542
 53.2216  6666.93  81.8032
 53.4196  6780.63  82.4275
 53.6176  6661.62  82.1957
 53.8156  6597.77  81.4786
 54.0136  6478.41  80.9138
 54.2116  6583.3  81.1878
 54.4096  6489.62  80.6871
 54.6076  6465.92  80.8773
 54.8056  6328.52  79.8103
 55.0036  6377.43  80.3634
 55.2016  6418.63  80.2042
 55.3996  6179.9  78.7766
 55.5976  6262.17  79.4863
 55.7956  6266.32  79.3198
 55.9936  6253.09  79.3527
 56.1916  6205.85  79.0982
 56.3896  6129.21  78.6
 56.5876  6070  78.7535
 56.7856  6064.01  78.2197
 56.9836  6161.18  78.6121
 57.1816  6223.64  79.3754
 57.3796  5998.43  77.7212
 57.5776  6108.68  78.3477
 57.7756  5976.33  78.1617
 57.9736  5965.58  77.7521
 58.1716  5972.59  78.0664
 58.3696  5801.12  76.7077
 58.5676  5869.09  76.6393
 58.7656  5822.18  76.9982
 58.9636  5712.22  76.295
 59.1616  5767.33  76.787
 59.3596  5793.44  76.2449
 59.5576  5849.79  76.6704
 59.7556  5808.16  76.8073
 59.9536  5786.64  76.5659
 60.1516  5724.91  76.9829
 60.1996  0.0000000E+00  0.0000000E+00