Folder: echemistpy/docs/examples/opeando_xrd/IS17_D/Data/IS17_D (part 53)

File: 17_Da_f00135.xye
# /beamlines/bl04/projects/cycle2025-II/20250340211-lsimonelli/DATA/IS17_D/17_Da_f00135.xye : mythproc.py merge -s 0.006 -l 0.5 -f /beamlines/bl04/inhouse/ff/FlatField/ff_20Nov2024rod8mm60s_17keV.raw -b True -c true -o xye /beamlines/bl04/projects/cycle2025-II/20250340211-lsimonelli/DATA/IS17_D/17_Da_00135.dat
# IsMon = [6755686, 6755313, 6756583]  IsPos = [-1.4999, -2.4884, -3.4988]
# Wave = 0.4962  CalPath /beamlines/bl04/projects/cycle2025-II/20250340211-lsimonelli/DATA/Align/Si_Pos1_25keV_f00001.cal
# Date = 2025-09-25_07:10:50 Dt = 4.8000  Bin = 0.0060  <imon> = 6755861 +/- 533 (Min/Max) 6755313 / 6756583
# icurr 250.0500  mocoIn 1.7064E-05  mocoOut 0.8007  i15 7.0711e+06  imon 6.75586e+06  i7 8.0000  iEMpd_timer 4.8000  iEMpd_1 3.3597E-08  iEMpd_2 7.8590E-08  iEMpd_3 1.8345E-08  iEMpd_4 4.8730E-08  iEMhp_timer 4.8000  iEMhp_1 4.8846E-06  iEMhp_2 -2.5448E-08  iEMhp_3 -2.3449E-08  iEMhp_4 -2.1633E-08
#      9776
 1.7416  69480.9  263.671
 1.9396  45393.2  213.392
 2.1376  32244.6  179.85
 2.3356  28571  168.939
 2.5336  27046.8  164.95
 2.7316  25019  158.757
 2.9296  23997.5  155.647
 3.1276  23384.5  153.198
 3.3256  23276.5  152.52
 3.5236  25047.5  158.02
 3.7216  22749.3  151.815
 3.9196  22527.7  150.314
 4.1176  22370  149.555
 4.3156  23525.4  153.53
 4.5136  26201.1  161.015
 4.7116  27119.8  164.944
 4.9096  26507.5  162.513
 5.1076  25989.6  161.486
 5.3056  26520.1  162.857
 5.5036  26365.1  162.277
 5.7016  26923.1  163.951
 5.8996  27491  164.892
 6.0976  28003.8  167.852
 6.2956  28611.5  169
 6.4936  29227  170.005
 6.6916  29676.6  172.304
 6.8896  30455.6  174.41
 7.0876  31527.7  178.179
 7.2856  31476.9  177.095
 7.4836  32002.5  177.902
 7.6816  32801.7  180.64
 7.8796  34306.2  184.733
 8.0776  36200.7  190.756
 8.2756  38011.8  194.059
 8.4736  38337.9  194.695
 8.6716  37851.9  194.1
 8.8696  38044.8  195.068
 9.0676  37430.8  192.842
 9.2656  35784.3  189.245
 9.4636  35568.9  187.077
 9.6616  34724.2  185.612
 9.8596  33487.4  181.749
 10.0576  31589.3  177.188
 10.2556  30666.7  175.024
 10.4536  31317.7  176.461
 10.6516  31715.5  177.793
 10.8496  28239.9  167.161
 11.0476  27918.8  166.237
 11.2456  28311.4  167.953
 11.4436  27889.6  165.844
 11.6416  26520.9  162.084
 11.8396  25301.1  158.52
 12.0376  24805.2  156.597
 12.2356  24850.4  157.15
 12.4336  24672.4  156.125
 12.6316  24084.2  154.517
 12.8296  24476.4  155.409
 13.0276  24966.4  157.136
 13.2256  24696.9  156.654
 13.4236  24658.7  156.298
 13.6216  24509.7  155.843
 13.8196  24843.9  156.669
 14.0176  24171.8  154.821
 14.2156  23587.8  151.984
 14.4136  22584.5  150.084
 14.6116  22219.4  148.08
 14.8096  21494.3  145.629
 15.0076  20388.8  145.645
 15.2056  20183.3  140.719
 15.4036  18993.9  137.338
 15.6016  18860.3  135.931
 15.7996  18061.9  133.296
 15.9976  17422.6  133.865
 16.1956  17146.9  130.656
 16.3936  16795.3  128.482
 16.5916  16479.8  127.902
 16.7896  16447.1  127.837
 16.9876  16427  129.228
 17.1856  16049.3  126.107
 17.3836  15541.6  123.989
 17.5816  15155.2  122.927
 17.7796  15126.6  122.747
 17.9776  15170.6  123.718
 18.1756  15540  123.896
 18.3736  15551.7  124.47
 18.5716  14680.6  120.68
 18.7696  14807.8  120.769
 18.9676  14316.1  118.552
 19.1656  14401.5  119.467
 19.3636  14193.4  118.81
 19.5616  14146.4  118.782
 19.7596  14316.1  118.887
 19.9576  14844  121.122
 20.1556  14074.3  118.459
 20.3536  13819.2  116.754
 20.5516  13444  115.605
 20.7496  13281.2  114.834
 20.9476  13338.7  114.843
 21.1456  13396  115.418
 21.3436  12968.5  113.515
 21.5416  12943.9  113.407
 21.7396  12835.8  112.778
 21.9376  12881.2  112.742
 22.1356  12984.8  113.322
 22.3336  12904.7  113.271
 22.5316  12753  112.686
 22.7296  12773.3  112.137
 22.9276  12780.3  112.846
 23.1256  13010.6  113.325
 23.3236  12781.6  112.881
 23.5216  12738.8  112.351
 23.7196  12350.2  110.568
 23.9176  12429.2  110.677
 24.1156  12372.1  110.899
 24.3136  11961.6  109.837
 24.5116  11996.5  109.524
 24.7096  11770  108.304
 24.9076  11469.5  106.939
 25.1056  11317.5  106.694
 25.3036  11211.4  105.698
 25.5016  11414.6  106.689
 25.6996  11225.3  105.374
 25.8976  11302.4  106.172
 26.0956  11177  105.607
 26.2936  11155.6  105.15
 26.4916  11053.9  104.552
 26.6896  10790.7  103.595
 26.8876  10735.1  103.178
 27.0856  10680.4  102.968
 27.2836  10580.4  102.373
 27.4816  10445.9  101.652
 27.6796  10347.2  101.552
 27.8776  10398.5  101.663
 28.0756  10363.5  101.778
 28.2736  10244.4  100.774
 28.4716  10022.9  99.7205
 28.6696  10087  99.8886
 28.8676  9896.23  99.2862
 29.0656  9824.99  98.9112
 29.2636  9758.89  98.3696
 29.4616  9937.38  99.4519
 29.6596  9795.96  98.3041
 29.8576  9732.2  98.6753
 30.0556  9782.42  98.8016
 30.2536  9881.14  99.0882
 30.4516  9583.37  97.2391
 30.6496  9737.9  97.7441
 30.8476  9526.68  97.1229
 31.0456  9360.81  96.2287
 31.2436  9459.6  96.0052
 31.4416  9333.29  95.5406
 31.6396  9450.5  96.189
 31.8376  9384.78  95.396
 32.0356  9314.06  95.5979
 32.2336  9022.61  93.4895
 32.4316  9086.13  94.2251
 32.6296  8977.47  93.499
 32.8276  9194.96  94.3889
 33.0256  9065.64  93.8042
 33.2236  8949.27  93.3456
 33.4216  9078.9  93.7076
 33.6196  9030.54  93.756
 33.8176  8881.71  93.1452
 34.0156  8855.24  92.6152
 34.2136  8864.06  92.6966
 34.4116  8675.33  91.8649
 34.6096  8768.35  92.2325
 34.8076  8648.95  92.0069
 35.0056  8634.96  91.6274
 35.2036  8661.65  91.9788
 35.4016  8568.92  91.4094
 35.5996  8511.98  91.1399
 35.7976  8507.21  91.3906
 35.9956  8522.38  91.1176
 36.1936  8515.61  90.9401
 36.3916  8404.77  90.531
 36.5896  8369.14  91.3073
 36.7876  8303.01  90.3537
 36.9856  8258.12  90.1404
 37.1836  8208.26  88.9707
 37.3816  8339.23  90.0446
 37.5796  8112.97  90.5213
 37.7776  8135.34  89.0301
 37.9756  8192.94  89.2246
 38.1736  8280.24  89.8985
 38.3716  8052.43  88.9256
 38.5696  8074.06  89.4265
 38.7676  7893.24  87.9276
 38.9656  7971.75  87.999
 39.1636  7798.93  87.2951
 39.3616  8014.34  88.4317
 39.5596  7906.44  88.6826
 39.7576  7872.16  87.8549
 39.9556  8025.62  88.3542
 40.1536  8054.47  88.7106
 40.3516  8135.9  89.1717
 40.5496  8061.54  89.0252
 40.7476  8113.29  89.3144
 40.9456  8246.82  89.7897
 41.1436  8063.5  88.5064
 41.3416  7999.63  88.4967
 41.5396  7865.42  87.5551
 41.7376  8024.77  88.7061
 41.9356  7923.22  88.0021
 42.1336  7993.58  88.5413
 42.3316  7845.03  87.9137
 42.5296  7864.44  87.5342
 42.7276  7899.32  87.9735
 42.9256  7872.02  87.6879
 43.1236  7957.59  88.2752
 43.3216  7875.53  87.5689
 43.5196  7764.59  87.0128
 43.7176  7652.08  86.7707
 43.9156  7660.7  86.733
 44.1136  7632.14  86.1232
 44.3116  7688.92  86.4548
 44.5096  7622.38  86.3896
 44.7076  7568.45  86.0096
 44.9056  7598.23  86.0486
 45.1036  7507.94  85.164
 45.3016  7379.81  84.9314
 45.4996  7383.58  84.8869
 45.6976  7252.31  84.3046
 45.8956  7516.36  85.6478
 46.0936  7435.06  85.184
 46.2916  7407.91  85.0107
 46.4896  7411.14  85.0621
 46.6876  7327.42  85.2814
 46.8856  7273.34  84.2211
 47.0836  7225.25  84.2017
 47.2816  7097.86  83.3389
 47.4796  7171.19  83.8751
 47.6776  7001.01  83.8115
 47.8756  7101.46  83.5802
 48.0736  7105.45  84.056
 48.2716  7029.06  83.426
 48.4696  7000.89  82.8567
 48.6676  7027.62  83.5918
 48.8656  6993.59  83.1265
 49.0636  7101.83  83.7122
 49.2616  6888.88  82.4802
 49.4596  7019.05  82.8174
 49.6576  6908.76  82.3936
 49.8556  6896.43  82.3373
 50.0536  6891.57  82.7549
 50.2516  6874.39  82.7831
 50.4496  6795.09  81.963
 50.6476  6861.77  82.0467
 50.8456  6780.89  81.6542
 51.0436  6594.38  80.9553
 51.2416  6722.33  81.4106
 51.4396  6556.3  80.7919
 51.6376  6610.65  80.9553
 51.8356  6600.31  80.5263
 52.0336  6559.02  80.774
 52.2316  6582.65  81.2704
 52.4296  6552.93  80.7662
 52.6276  6513.21  80.6486
 52.8256  6564.26  80.5118
 53.0236  6494.45  80.7349
 53.2216  6398.67  80.1716
 53.4196  6316.64  79.5812
 53.6176  6308.44  80.0011
 53.8156  6348.77  79.9292
 54.0136  6356.32  80.1536
 54.2116  6457.96  80.4504
 54.4096  6363.74  79.911
 54.6076  6333.66  80.064
 54.8056  6265.45  79.4269
 55.0036  6282.68  79.9263
 55.2016  6266.92  79.3721
 55.3996  6308.93  79.6102
 55.5976  6231.47  79.3098
 55.7956  6356.01  79.9098
 55.9936  6189.72  78.9899
 56.1916  6299.53  79.7005
 56.3896  6244.63  79.3498
 56.5876  6110.33  79.0419
 56.7856  6218.07  79.2141
 56.9836  6171.05  78.6975
 57.1816  6101  78.6289
 57.3796  6158.18  78.7968
 57.5776  6200.44  78.9948
 57.7756  5999.22  78.3309
 57.9736  6166.85  79.0932
 58.1716  6177.96  79.4017
 58.3696  6133.66  78.8718
 58.5676  6217.77  78.8843
 58.7656  6227.14  79.6213
 58.9636  6242.43  79.7516
 59.1616  6136.61  79.1941
 59.3596  6257.54  79.2236
 59.5576  6095.34  78.2476
 59.7556  6265.75  79.7599
 59.9536  6212.85  79.32
 60.1516  6109.14  79.5088
 60.1996  0.0000000E+00  0.0000000E+00

File: 17_Da_f00136.xye
# /beamlines/bl04/projects/cycle2025-II/20250340211-lsimonelli/DATA/IS17_D/17_Da_f00136.xye : mythproc.py merge -s 0.006 -l 0.5 -f /beamlines/bl04/inhouse/ff/FlatField/ff_20Nov2024rod8mm60s_17keV.raw -b True -c true -o xye /beamlines/bl04/projects/cycle2025-II/20250340211-lsimonelli/DATA/IS17_D/17_Da_00136.dat
# IsMon = [6764487, 6767949, 6763649]  IsPos = [-1.4999, -2.4884, -3.4989]
# Wave = 0.4962  CalPath /beamlines/bl04/projects/cycle2025-II/20250340211-lsimonelli/DATA/Align/Si_Pos1_25keV_f00001.cal
# Date = 2025-09-25_07:27:20 Dt = 4.8000  Bin = 0.0060  <imon> = 6765362 +/- 1861 (Min/Max) 6763649 / 6767949
# icurr 250.8435  mocoIn 1.7107E-05  mocoOut 0.8023  i15 7.08387e+06  imon 6.76536e+06  i7 5.6667  iEMpd_timer 4.8000  iEMpd_1 3.4554E-08  iEMpd_2 7.9908E-08  iEMpd_3 1.8911E-08  iEMpd_4 4.8720E-08  iEMhp_timer 4.8000  iEMhp_1 4.8990E-06  iEMhp_2 -2.5518E-08  iEMhp_3 -2.4723E-08  iEMhp_4 -2.0248E-08
#      9776
 1.7416  69493.1  263.708
 1.9396  45631.7  213.969
 2.1376  32118.4  179.507
 2.3356  28752.2  169.483
 2.5336  27099.3  165.118
 2.7316  25249.2  159.471
 2.9296  23769  154.89
 3.1276  23397.5  153.237
 3.3256  23278.8  152.506
 3.5236  25296.4  158.781
 3.7216  23017.7  152.706
 3.9196  22693.8  150.864
 4.1176  22388.7  149.619
 4.3156  23682.6  154.049
 4.5136  26472  161.837
 4.7116  27120.4  164.946
 4.9096  26589.1  162.76
 5.1076  26175.1  162.063
 5.3056  26612.9  163.149
 5.5036  26508.9  162.71
 5.7016  26745.5  163.412
 5.8996  27422.6  164.684
 6.0976  28281.4  168.683
 6.2956  28605  168.981
 6.4936  29413.9  170.548
 6.6916  29619.6  172.138
 6.8896  30550  174.676
 7.0876  31599.8  178.383
 7.2856  31333  176.687
 7.4836  32037.1  177.995
 7.6816  32960.4  181.079
 7.8796  34073  184.097
 8.0776  36839.9  192.424
 8.2756  38116.7  194.33
 8.4736  38600.4  195.357
 8.6716  38124.9  194.781
 8.8696  38154  195.373
 9.0676  37100.8  192.012
 9.2656  35912.6  189.608
 9.4636  35641  187.286
 9.6616  34660.1  185.465
 9.8596  33445.9  181.618
 10.0576  31673.1  177.403
 10.2556  30926.1  175.745
 10.4536  31808.6  177.823
 10.6516  32001.2  178.574
 10.8496  28482.9  167.886
 11.0476  27860.3  166.066
 11.2456  28381.2  168.155
 11.4436  27850  165.723
 11.6416  26583.9  162.277
 11.8396  25140.3  158.012
 12.0376  25121.7  157.6
 12.2356  25004.3  157.627
 12.4336  24680.1  156.144
 12.6316  24136.1  154.687
 12.8296  24536.6  155.6
 13.0276  25080.2  157.498
 13.2256  24860.8  157.176
 13.4236  24882.6  156.997
 13.6216  24735.2  156.56
 13.8196  25020.2  157.223
 14.0176  24166.3  154.699
 14.2156  23725.3  152.42
 14.4136  22553.9  149.989
 14.6116  22145.5  147.832
 14.8096  21659.6  146.193
 15.0076  20488.9  146.006
 15.2056  19927.8  139.822
 15.4036  19272.3  138.331
 15.6016  18620.1  135.058
 15.7996  18340.1  134.328
 15.9976  17566.3  135.005
 16.1956  17107.5  130.52
 16.3936  16770.4  128.402
 16.5916  16524  128.091
 16.7896  16619.5  128.514
 16.9876  16282.5  128.659
 17.1856  16016.9  125.964
 17.3836  15457.2  123.646
 17.5816  15304.9  123.523
 17.7796  15331.8  123.565
 17.9776  15193.4  123.82
 18.1756  15692.3  124.499
 18.3736  15632.3  124.774
 18.5716  14793.8  121.143
 18.7696  14883.1  121.075
 18.9676  14407.5  118.931
 19.1656  14383.5  119.397
 19.3636  14286.2  119.192
 19.5616  14210.5  119.049
 19.7596  14433.1  119.368
 19.9576  14875.1  121.243
 20.1556  14036.6  118.297
 20.3536  13724.9  116.349
 20.5516  13487  115.792
 20.7496  13237.9  114.657
 20.9476  13400.1  115.108
 21.1456  13522  115.955
 21.3436  13165.6  114.378
 21.5416  13030  113.779
 21.7396  12910.3  113.105
 21.9376  13033.2  113.416
 22.1356  13006.4  113.409
 22.3336  13061.2  113.943
 22.5316  12774.6  112.777
 22.7296  12751.1  112.043
 22.9276  12788.8  112.884
 23.1256  13144.6  113.914
 23.3236  12774.6  112.866
 23.5216  12761.8  112.464
 23.7196  12556.1  111.492
 23.9176  12461.5  110.834
 24.1156  12304.6  110.608
 24.3136  12007.2  110.039
 24.5116  11941.9  109.267
 24.7096  11852.6  108.674
 24.9076  11484.8  107.003
 25.1056  11193  106.095
 25.3036  11219.5  105.729
 25.5016  11173.5  105.552
 25.6996  11273.8  105.603
 25.8976  11130.6  105.368
 26.0956  11302  106.201
 26.2936  11132.4  105.037
 26.4916  11298.9  105.702
 26.6896  10846.7  103.86
 26.8876  10753.8  103.267
 27.0856  10762.9  103.371
 27.2836  10478  101.883
 27.4816  10576.7  102.298
 27.6796  10490.4  102.256
 27.8776  10504.8  102.181
 28.0756  10425.1  102.08
 28.2736  10273.9  100.917
 28.4716  9953.3  99.3783
 28.6696  10083.2  99.8722
 28.8676  9948.51  99.5495
 29.0656  9838.42  98.9729
 29.2636  9846.14  98.806
 29.4616  9791.73  98.718
 29.6596  9849.12  98.5685
 29.8576  9645.97  98.2355
 30.0556  9703.31  98.4087
 30.2536  9784.39  98.6048
 30.4516  9772.63  98.2062
 30.6496  9632.51  97.2238
 30.8476  9556.34  97.2809
 31.0456  9513.25  97.0227
 31.2436  9454.21  95.9867
 31.4416  9205.75  94.8787
 31.6396  9489.12  96.377
 31.8376  9355.92  95.2452
 32.0356  9180.09  94.9073
 32.2336  9171.28  94.2497
 32.4316  9094.29  94.2605
 32.6296  9017.83  93.7032
 32.8276  9199.73  94.4184
 33.0256  9064.67  93.8035
 33.2236  8983.07  93.5254
 33.4216  9000.68  93.3086
 33.6196  9116.85  94.1974
 33.8176  9037.35  93.9446
 34.0156  8856.7  92.6232
 34.2136  8871.22  92.7419
 34.4116  8767.22  92.3494
 34.6096  8804.48  92.4198
 34.8076  8599.46  91.7523
 35.0056  8630.53  91.6044
 35.2036  8640.84  91.8691
 35.4016  8584.55  91.4885
 35.5996  8665.76  91.9588
 35.7976  8536.47  91.5485
 35.9956  8552.62  91.2701
 36.1936  8584.56  91.3178
 36.3916  8416.97  90.5936
 36.5896  8356.4  91.2367
 36.7876  8542.11  91.6482
 36.9856  8297.64  90.3515
 37.1836  8216.02  89.0106
 37.3816  8360.28  90.1623
 37.5796  8137.27  90.6738
 37.7776  8247.95  89.6491
 37.9756  8124.9  88.8615
 38.1736  8312.4  90.0833
 38.3716  8318.21  90.3934
 38.5696  8168.18  89.9448
 38.7676  7868.24  87.7782
 38.9656  7958.9  87.9201
 39.1636  7949.53  88.1374
 39.3616  8050.24  88.6177
 39.5596  7952.76  88.9457
 39.7576  7907.68  88.0585
 39.9556  7930.2  87.8257
 40.1536  8170.17  89.3563
 40.3516  8131.6  89.1456
 40.5496  8101.04  89.2413
 40.7476  8129.47  89.4013
 40.9456  8101.33  88.9987
 41.1436  8131.67  88.8857
 41.3416  8058.57  88.8213
 41.5396  7964.48  88.1115
 41.7376  8013.14  88.6457
 41.9356  8008.59  88.4763
 42.1336  7972.16  88.4216
 42.3316  7887.27  88.1493
 42.5296  8019.23  88.3933
 42.7276  8014.16  88.6094
 42.9256  7973.16  88.2506
 43.1236  7776.65  87.2658
 43.3216  7944.16  87.9538
 43.5196  7811.85  87.2756
 43.7176  7691.97  86.9976
 43.9156  7610.24  86.4412
 44.1136  7633.34  86.1278
 44.3116  7698  86.5109
 44.5096  7603.61  86.2824
 44.7076  7498.55  85.6147
 44.9056  7591.56  86.0221
 45.1036  7527.28  85.2835
 45.3016  7462.67  85.4153
 45.4996  7459.48  85.3363
 45.6976  7425.78  85.3206
 45.8956  7433.89  85.1663
 46.0936  7443.94  85.2234
 46.2916  7339.77  84.6074
 46.4896  7444.2  85.2471
 46.6876  7291.85  85.0773
 46.8856  7230.68  83.984
 47.0836  7302.93  84.6527
 47.2816  7141.28  83.5847
 47.4796  7256.02  84.37
 47.6776  7132.21  84.5732
 47.8756  7193.21  84.116
 48.0736  7174.76  84.4738
 48.2716  6969.5  83.0706
 48.4696  7072.1  83.2757
 48.6676  7053.05  83.7421
 48.8656  7092.74  83.7067
 49.0636  7033.32  83.3062
 49.2616  6928.15  82.7151
 49.4596  7050.99  83.0123
 49.6576  7014.73  83.0236
 49.8556  6865.83  82.1533
 50.0536  6858.05  82.5509
 50.2516  6897.86  82.9263
 50.4496  6845.52  82.2598
 50.6476  6807.25  81.7226
 50.8456  6739.31  81.3932
 51.0436  6712.46  81.6721
 51.2416  6647.6  80.962
 51.4396  6572.63  80.8898
 51.6376  6610.7  80.95
 51.8356  6652.53  80.8377
 52.0336  6527.18  80.5773
 52.2316  6632.3  81.58
 52.4296  6649.64  81.3755
 52.6276  6682.11  81.6844
 52.8256  6577.97  80.605
 53.0236  6437.95  80.3775
 53.2216  6433.9  80.385
 53.4196  6405.59  80.1256
 53.6176  6237.1  79.5416
 53.8156  6410.07  80.304
 54.0136  6506.86  81.095
 54.2116  6377.33  79.9417
 54.4096  6362.1  79.8978
 54.6076  6237.11  79.4592
 54.8056  6272.6  79.4731
 55.0036  6272.35  79.8611
 55.2016  6339.22  79.8851
 55.3996  6315.99  79.6555
 55.5976  6312.7  79.8187
 55.7956  6387.66  80.1124
 55.9936  6274.89  79.5309
 56.1916  6252.09  79.4075
 56.3896  6274.54  79.5399
 56.5876  6193.12  79.5753
 56.7856  6300.28  79.7362
 56.9836  6151.86  78.572
 57.1816  6194.37  79.1268
 57.3796  6230.61  79.2555
 57.5776  6266.7  79.414
 57.7756  6163.58  79.3936
 57.9736  6100.54  78.6643
 58.1716  6216.15  79.6524
 58.3696  6085.27  78.5544
 58.5676  6265.55  79.1791
 58.7656  6271.87  79.9035
 58.9636  6255.98  79.8366
 59.1616  6249.6  79.9184
 59.3596  6387.07  80.0546
 59.5576  6345.46  79.8513
 59.7556  6135.02  78.9377
 59.9536  6232.87  79.4619
 60.1516  6265.99  80.5375
 60.1996  6344.47  84.265