Folder: echemistpy/docs/examples/opeando_xrd/IS17_D/Data/IS17_D (part 43)

File: 17_Da_f00112.xye
# /beamlines/bl04/projects/cycle2025-II/20250340211-lsimonelli/DATA/IS17_D/17_Da_f00112.xye : mythproc.py merge -s 0.006 -l 0.5 -f /beamlines/bl04/inhouse/ff/FlatField/ff_20Nov2024rod8mm60s_17keV.raw -b True -c true -o xye /beamlines/bl04/projects/cycle2025-II/20250340211-lsimonelli/DATA/IS17_D/17_Da_00112.dat
# IsMon = [6772396, 6765619, 6763468]  IsPos = [-1.4999, -2.4884, -3.4988]
# Wave = 0.4962  CalPath /beamlines/bl04/projects/cycle2025-II/20250340211-lsimonelli/DATA/Align/Si_Pos1_25keV_f00001.cal
# Date = 2025-09-25_00:47:17 Dt = 4.8000  Bin = 0.0060  <imon> = 6767161 +/- 3804 (Min/Max) 6763468 / 6772396
# icurr 250.9183  mocoIn 1.7119E-05  mocoOut 0.8027  i15 7.08927e+06  imon 6.76716e+06  i7 4.6667  iEMpd_timer 4.8000  iEMpd_1 3.5031E-08  iEMpd_2 7.8560E-08  iEMpd_3 1.6986E-08  iEMpd_4 4.8417E-08  iEMhp_timer 4.8000  iEMhp_1 4.9027E-06  iEMhp_2 -2.5590E-08  iEMhp_3 -2.5025E-08  iEMhp_4 -2.0177E-08
#      9776
 1.7416  71318.9  267.029
 1.9396  47347.9  217.86
 2.1376  34200.5  185.15
 2.3356  30732.9  175.144
 2.5336  28992.9  170.713
 2.7316  27495.1  166.398
 2.9296  26245.9  162.748
 3.1276  25709.3  160.59
 3.3256  25116  158.417
 3.5236  26731.4  163.231
 3.7216  24361.2  157.102
 3.9196  23865.8  154.711
 4.1176  23525.6  153.349
 4.3156  24875.5  157.885
 4.5136  26987  163.415
 4.7116  28199  168.193
 4.9096  27387.1  165.186
 5.1076  26970.1  164.488
 5.3056  27419.5  165.602
 5.5036  27136.7  164.64
 5.7016  27605.1  166.017
 5.8996  28201.1  167.009
 6.0976  28706.9  169.931
 6.2956  29442.7  171.452
 6.4936  30200.5  172.809
 6.6916  30463.2  174.571
 6.8896  31585.7  177.613
 7.0876  32720.5  181.518
 7.2856  32479.2  179.894
 7.4836  32735.1  179.923
 7.6816  33419.6  182.334
 7.8796  35232.9  187.249
 8.0776  36796.4  192.358
 8.2756  38404.8  195.105
 8.4736  38856.6  196.053
 8.6716  38560.4  195.936
 8.8696  38272.8  195.641
 9.0676  37488.3  192.984
 9.2656  36521.8  191.18
 9.4636  36205.9  188.746
 9.6616  35305.2  187.179
 9.8596  33891.8  182.81
 10.0576  31889.7  178.021
 10.2556  30859.3  175.541
 10.4536  29782.8  172.055
 10.6516  29041.5  170.086
 10.8496  28156.2  166.909
 11.0476  27486.3  164.946
 11.2456  26649.9  162.954
 11.4436  26556.6  161.832
 11.6416  27912.1  166.285
 11.8396  25564.3  159.326
 12.0376  25319.7  158.225
 12.2356  24709.5  156.706
 12.4336  24901  156.844
 12.6316  24431.1  155.609
 12.8296  24846.2  156.579
 13.0276  25398.4  158.503
 13.2256  25474.3  159.105
 13.4236  25245.3  158.144
 13.6216  25216.3  158.059
 13.8196  25257.2  157.968
 14.0176  24849.8  156.995
 14.2156  24152.4  153.794
 14.4136  22976  151.387
 14.6116  22723.9  149.753
 14.8096  22077  147.602
 15.0076  20923.8  147.552
 15.2056  20426.6  141.593
 15.4036  19572.8  139.446
 15.6016  19294.9  137.519
 15.7996  18596  135.29
 15.9976  17973.7  135.963
 16.1956  17524.2  132.081
 16.3936  16978.8  129.175
 16.5916  16647.6  128.548
 16.7896  16753.5  129.017
 16.9876  16596.4  129.888
 17.1856  16528.6  127.967
 17.3836  15962.5  125.629
 17.5816  15493.1  124.274
 17.7796  15072.6  122.508
 17.9776  14967.5  122.89
 18.1756  15005.7  121.742
 18.3736  14768  121.295
 18.5716  14584.1  120.285
 18.7696  14728.2  120.44
 18.9676  14352.3  118.692
 19.1656  14311  119.098
 19.3636  14318.3  119.333
 19.5616  14094.5  118.568
 19.7596  14183.2  118.323
 19.9576  14399.2  119.29
 20.1556  15316.6  123.587
 20.3536  14533.2  119.736
 20.5516  13967.4  117.833
 20.7496  13504.5  115.807
 20.9476  13449.6  115.306
 21.1456  13514.8  115.941
 21.3436  13378.7  115.299
 21.5416  13150.2  114.309
 21.7396  13161.1  114.197
 21.9376  12974.7  113.157
 22.1356  13132.3  113.967
 22.3336  13013.1  113.764
 22.5316  12974.9  113.69
 22.7296  12999.6  113.147
 22.9276  12972.7  113.721
 23.1256  13061.1  113.576
 23.3236  13105.3  114.305
 23.5216  12981  113.408
 23.7196  12765.2  112.405
 23.9176  12786.9  112.24
 24.1156  12451.2  111.248
 24.3136  12132.5  110.607
 24.5116  12225.8  110.55
 24.7096  11926.3  109.002
 24.9076  11604.2  107.535
 25.1056  11393.8  107.035
 25.3036  11318.1  106.202
 25.5016  11281.8  106.066
 25.6996  11344.7  105.932
 25.8976  11212.9  105.747
 26.0956  11170.8  105.587
 26.2936  11128.4  105.02
 26.4916  11191.6  105.2
 26.6896  10991.9  104.554
 26.8876  10949.8  104.191
 27.0856  10923.9  104.144
 27.2836  10657.6  102.752
 27.4816  10625.5  102.528
 27.6796  10576.6  102.672
 27.8776  10340.2  101.363
 28.0756  10412.6  102.027
 28.2736  10326.4  101.175
 28.4716  10038.3  99.8025
 28.6696  10138.6  100.142
 28.8676  10091.7  100.265
 29.0656  9915.5  99.364
 29.2636  10018.3  99.6612
 29.4616  9991.18  99.7406
 29.6596  9898.65  98.8381
 29.8576  9662.73  98.343
 30.0556  9750.37  98.6654
 30.2536  9962.69  99.5195
 30.4516  9715.2  97.9029
 30.6496  9742.37  97.7632
 30.8476  9676.48  97.8803
 31.0456  9622.94  97.5533
 31.2436  9559.51  96.4927
 31.4416  9501.53  96.3823
 31.6396  9539.29  96.625
 31.8376  9460.58  95.7679
 32.0356  9360.36  95.8307
 32.2336  9176.46  94.2626
 32.4316  9318.81  95.4272
 32.6296  9174.98  94.5227
 32.8276  9166.72  94.2469
 33.0256  9139.56  94.1875
 33.2236  9141.46  94.3196
 33.4216  9204.24  94.3638
 33.6196  9292.62  95.109
 33.8176  9061.74  94.0797
 34.0156  8958.82  93.1558
 34.2136  8938.32  93.0796
 34.4116  8893.89  93.0215
 34.6096  8968.99  93.2842
 34.8076  8710.8  92.3359
 35.0056  8909.39  93.0725
 35.2036  8840.38  92.9148
 35.4016  8698.45  92.1016
 35.5996  8638.59  91.8162
 35.7976  8590.19  91.8359
 35.9956  8586  91.4531
 36.1936  8534.73  91.0493
 36.3916  8451.94  90.7853
 36.5896  8466.02  91.8342
 36.7876  8473.75  91.3003
 36.9856  8320.77  90.5004
 37.1836  8442.94  90.2513
 37.3816  8375.18  90.2577
 37.5796  8263.69  91.3722
 37.7776  8167.87  89.1919
 37.9756  8179.19  89.1302
 38.1736  8214.59  89.5365
 38.3716  8262.17  90.0734
 38.5696  8184.05  90.0316
 38.7676  8012.93  88.5761
 38.9656  8001.59  88.1488
 39.1636  8018.88  88.5006
 39.3616  8111.55  88.961
 39.5596  8046.91  89.4531
 39.7576  7987.71  88.5061
 39.9556  8081.01  88.6536
 40.1536  8126.63  89.1096
 40.3516  8208.94  89.5708
 40.5496  8154.16  89.5333
 40.7476  8220.99  89.9061
 40.9456  8252.71  89.8262
 41.1436  8172.29  89.095
 41.3416  8123.81  89.1866
 41.5396  8041.33  88.5343
 41.7376  8118.73  89.228
 41.9356  7998.53  88.4226
 42.1336  8048.21  88.836
 42.3316  7925.83  88.3729
 42.5296  7931.15  87.909
 42.7276  8042.82  88.77
 42.9256  8009.25  88.4519
 43.1236  7933.17  88.1381
 43.3216  7920.25  87.814
 43.5196  7846.92  87.4685
 43.7176  7873.26  88.0182
 43.9156  7771.84  87.3756
 44.1136  7761.61  86.8663
 44.3116  7664.85  86.341
 44.5096  7715.89  86.9373
 44.7076  7600.17  86.2124
 44.9056  7762.64  86.9726
 45.1036  7500.34  85.1157
 45.3016  7532.46  85.801
 45.4996  7480.76  85.4333
 45.6976  7322.03  84.7163
 45.8956  7604.21  86.1313
 46.0936  7497.36  85.5217
 46.2916  7486.98  85.4497
 46.4896  7512.04  85.6247
 46.6876  7408.99  85.7477
 46.8856  7318.41  84.4823
 47.0836  7336.61  84.8401
 47.2816  7275.61  84.3798
 47.4796  7329.38  84.7876
 47.6776  7201.44  84.9967
 47.8756  7327.24  84.8985
 48.0736  7212.03  84.682
 48.2716  7029.64  83.4336
 48.4696  7178.44  83.8963
 48.6676  7141  84.2581
 48.8656  7141.11  83.992
 49.0636  7153.83  84.0043
 49.2616  6931.13  82.7429
 49.4596  7039.12  82.942
 49.6576  6940.58  82.5713
 49.8556  7000.09  82.9558
 50.0536  7006.02  83.4365
 50.2516  6920.03  83.0589
 50.4496  6921.42  82.7222
 50.6476  6988.13  82.7979
 50.8456  6877.69  82.2261
 51.0436  6809.51  82.2814
 51.2416  6739.3  81.5342
 51.4396  6660.21  81.4491
 51.6376  6683.44  81.4083
 51.8356  6676.14  80.994
 52.0336  6599.76  81.0214
 52.2316  6514.6  80.842
 52.4296  6604.64  81.1015
 52.6276  6618.61  81.2941
 52.8256  6732.41  81.5346
 53.0236  6435.25  80.3539
 53.2216  6485.44  80.6977
 53.4196  6376.27  79.9403
 53.6176  6501.36  81.204
 53.8156  6494.18  80.8181
 54.0136  6543.28  81.3309
 54.2116  6433.06  80.2874
 54.4096  6433.55  80.3494
 54.6076  6355.48  80.2099
 54.8056  6329.62  79.833
 55.0036  6372.83  80.4994
 55.2016  6361.46  79.9648
 55.3996  6428.01  80.3651
 55.5976  6335.87  79.9687
 55.7956  6370.83  79.9953
 55.9936  6301.64  79.6927
 56.1916  6322.15  79.8486
 56.3896  6300.45  79.7141
 56.5876  6278.32  80.1204
 56.7856  6216.89  79.2077
 56.9836  6242.37  79.1496
 57.1816  6279.64  79.7615
 57.3796  6367.32  80.1258
 57.5776  6257.98  79.357
 57.7756  6218.51  79.746
 57.9736  6224.09  79.4566
 58.1716  6241.99  79.8189
 58.3696  6223.33  79.4545
 58.5676  6293.89  79.3729
 58.7656  6162.85  79.2202
 58.9636  6363.78  80.5394
 59.1616  6290.75  80.2061
 59.3596  6300.92  79.5212
 59.5576  6389.14  80.1374
 59.7556  6325.02  80.1624
 59.9536  6352.25  80.2311
 60.1516  6342.27  81.0381
 60.1996  0.0000000E+00  0.0000000E+00

File: 17_Da_f00113.xye
# /beamlines/bl04/projects/cycle2025-II/20250340211-lsimonelli/DATA/IS17_D/17_Da_f00113.xye : mythproc.py merge -s 0.006 -l 0.5 -f /beamlines/bl04/inhouse/ff/FlatField/ff_20Nov2024rod8mm60s_17keV.raw -b True -c true -o xye /beamlines/bl04/projects/cycle2025-II/20250340211-lsimonelli/DATA/IS17_D/17_Da_00113.dat
# IsMon = [6777431, 6781796, 6782949]  IsPos = [-1.5000, -2.4884, -3.4988]
# Wave = 0.4962  CalPath /beamlines/bl04/projects/cycle2025-II/20250340211-lsimonelli/DATA/Align/Si_Pos1_25keV_f00001.cal
# Date = 2025-09-25_01:03:48 Dt = 4.8000  Bin = 0.0060  <imon> = 6780725 +/- 2377 (Min/Max) 6777431 / 6782949
# icurr 251.6815  mocoIn 1.7171E-05  mocoOut 0.8061  i15 7.09814e+06  imon 6.78073e+06  i7 7.6667  iEMpd_timer 4.8000  iEMpd_1 3.5899E-08  iEMpd_2 7.8989E-08  iEMpd_3 1.8298E-08  iEMpd_4 4.8421E-08  iEMhp_timer 4.8000  iEMhp_1 4.9183E-06  iEMhp_2 -2.5490E-08  iEMhp_3 -2.2861E-08  iEMhp_4 -2.0588E-08
#      9776
 1.7416  71004.8  266.608
 1.9396  47083.8  217.387
 2.1376  33953.2  184.596
 2.3356  30779.6  175.388
 2.5336  28805.7  170.268
 2.7316  27145.2  165.377
 2.9296  26237.4  162.757
 3.1276  25447.9  159.834
 3.3256  24851.6  157.596
 3.5236  26613.8  162.886
 3.7216  24318.5  156.96
 3.9196  23662  154.05
 4.1176  23475.1  153.214
 4.3156  24770.4  157.535
 4.5136  27071.7  163.664
 4.7116  28212.2  168.233
 4.9096  27491  165.498
 5.1076  26977.5  164.536
 5.3056  27547.9  165.977
 5.5036  27051.2  164.37
 5.7016  27497.5  165.693
 5.8996  28360.6  167.482
 6.0976  28906.6  170.547
 6.2956  29603  171.896
 6.4936  30270.3  173.01
 6.6916  30512.8  174.713
 6.8896  31568.3  177.566
 7.0876  32778  181.604
 7.2856  32339  179.503
 7.4836  32761.8  179.998
 7.6816  33677.7  183.038
 7.8796  35340.9  187.475
 8.0776  36870.6  192.492
 8.2756  38458.6  195.176
 8.4736  38901.8  196.1
 8.6716  38508.9  195.753
 8.8696  38287  195.712
 9.0676  37526.6  193.099
 9.2656  36564.1  191.302
 9.4636  35993.9  188.18
 9.6616  35425.5  187.483
 9.8596  34008.3  183.166
 10.0576  32063.9  178.512
 10.2556  31078.9  176.203
 10.4536  30002  172.725
 10.6516  28965.2  169.892
 10.8496  28333.9  167.447
 11.0476  27496.9  164.977
 11.2456  26717.6  163.155
 11.4436  26782.3  162.517
 11.6416  28169.6  167.046
 11.8396  25610  159.489
 12.0376  25326.4  158.225
 12.2356  24828.7  157.075
 12.4336  24915.1  156.893
 12.6316  24436.1  155.651
 12.8296  24916  156.797
 13.0276  25397.9  158.478
 13.2256  25605.4  159.511
 13.4236  25378  158.565
 13.6216  25266  158.24
 13.8196  25083.6  157.421
 14.0176  24710.1  156.528
 14.2156  24383.6  154.527
 14.4136  23101.7  151.803
 14.6116  22805.4  150.02
 14.8096  22078.6  147.589
 15.0076  20875.9  147.388
 15.2056  20797.8  142.829
 15.4036  19684.5  139.798
 15.6016  19463.4  138.075
 15.7996  18663.5  135.487
 15.9976  18062.5  136.292
 16.1956  17550.3  132.192
 16.3936  17237.2  130.169
 16.5916  16819.7  129.217
 16.7896  16893  129.563
 16.9876  16643.6  130.08
 17.1856  16522.8  127.954
 17.3836  15909  125.457
 17.5816  15535.1  124.469
 17.7796  15337  123.602
 17.9776  15127.4  123.545
 18.1756  15133.4  122.258
 18.3736  14920.5  121.915
 18.5716  14739.3  120.924
 18.7696  14574.3  119.812
 18.9676  14557.8  119.554
 19.1656  14321.4  119.132
 19.3636  14266.3  119.112
 19.5616  14144.3  118.773
 19.7596  14237.7  118.568
 19.9576  14460.6  119.542
 20.1556  15490.1  124.269
 20.3536  14325.1  118.875
 20.5516  14064.6  118.239
 20.7496  13537.5  115.862
 20.9476  13604.8  115.989
 21.1456  13614.3  116.353
 21.3436  13326.1  115.07
 21.5416  13241.2  114.705
 21.7396  13147.7  114.144
 21.9376  13153.6  113.921
 22.1356  13062.1  113.812
 22.3336  13088.6  114.058
 22.5316  12950.7  113.546
 22.7296  13082.5  113.479
 22.9276  13009.1  113.843
 23.1256  13177.7  114.038
 23.3236  13226.3  114.844
 23.5216  12802.2  112.638
 23.7196  12692.3  112.322
 23.9176  12650.5  111.674
 24.1156  12629.5  112.053
 24.3136  12185.3  110.869
 24.5116  12241.3  110.64
 24.7096  11802.1  108.456
 24.9076  11557.8  107.36
 25.1056  11431.4  107.235
 25.3036  11351  106.347
 25.5016  11333.6  106.304
 25.6996  11367.2  106.041
 25.8976  11205.6  105.729
 26.0956  11257.3  105.985
 26.2936  11182.7  105.277
 26.4916  11347.3  105.929
 26.6896  10938.6  104.303
 26.8876  10848  103.724
 27.0856  10839.2  103.73
 27.2836  10670.4  102.814
 27.4816  10599.2  102.4
 27.6796  10446.4  102.04
 27.8776  10336.4  101.364
 28.0756  10431.5  102.106
 28.2736  10392.3  101.498
 28.4716  10143.7  100.325
 28.6696  10228.8  100.588
 28.8676  10056.9  100.091
 29.0656  10016.5  99.8692
 29.2636  9901.52  99.0845
 29.4616  9950.22  99.5047
 29.6596  9948.17  99.0541
 29.8576  9767.67  98.8445
 30.0556  9847.16  99.1194
 30.2536  9869.41  99.0229
 30.4516  9772.88  98.2028
 30.6496  9637.8  97.2467
 30.8476  9780.95  98.4153
 31.0456  9636.86  97.6541
 31.2436  9631.14  96.8806
 31.4416  9558.15  96.6919
 31.6396  9537.84  96.6381
 31.8376  9289.28  94.9181
 32.0356  9386.51  95.9847
 32.2336  9376.75  95.3199
 32.4316  9228.26  94.956
 32.6296  9254.73  94.9262
 32.8276  9318.82  95.0271
 33.0256  9149.7  94.2394
 33.2236  9057.65  93.9179
 33.4216  9200.95  94.3322
 33.6196  9101.75  94.1214
 33.8176  9149.4  94.5398
 34.0156  9022.72  93.4943
 34.2136  9003.75  93.4339
 34.4116  8877.4  92.9226
 34.6096  8864.12  92.7277
 34.8076  8750.13  92.5505
 35.0056  8834.8  92.6817
 35.2036  8809.97  92.7647
 35.4016  8861.34  92.9523
 35.5996  8619.72  91.7148
 35.7976  8556.65  91.6598
 35.9956  8699.53  92.0542
 36.1936  8548.66  91.12
 36.3916  8598.79  91.5727
 36.5896  8486.34  91.9421
 36.7876  8600.89  91.9505
 36.9856  8366.77  90.7192
 37.1836  8260.73  89.2445
 37.3816  8435.23  90.5483
 37.5796  8298.94  91.5686
 37.7776  8255.65  89.6966
 37.9756  8229.54  89.4334
 38.1736  8300.98  90.0118
 38.3716  8245.16  89.9867
 38.5696  8152.42  89.8628
 38.7676  7939.42  88.1875
 38.9656  8162.53  89.0508
 39.1636  8032.62  88.6077
 39.3616  8164.59  89.2574
 39.5596  7969.34  89.03
 39.7576  8079.7  89.0147
 39.9556  8159.26  89.0829
 40.1536  8187.3  89.446
 40.3516  8284.42  89.9789
 40.5496  8175.76  89.6552
 40.7476  8121.72  89.3613
 40.9456  8249.19  89.8026
 41.1436  8179.84  89.1508
 41.3416  8170.73  89.4324
 41.5396  8100.26  88.8567
 41.7376  8108.96  89.1706
 41.9356  8048.03  88.6932
 42.1336  8068.84  88.9637
 42.3316  8040.75  89
 42.5296  7991.7  88.2393
 42.7276  8109.61  89.1372
 42.9256  8059.41  88.7284
 43.1236  7954.29  88.257
 43.3216  7978.85  88.1359
 43.5196  7829.67  87.3784
 43.7176  7857.69  87.9296
 43.9156  7829.47  87.6732
 44.1136  7789.63  86.9948
 44.3116  7684.23  86.4148
 44.5096  7821.15  87.4937
 44.7076  7732.07  86.9296
 44.9056  7625.75  86.2099
 45.1036  7720.98  86.369
 45.3016  7508.26  85.6677
 45.4996  7477.16  85.4317
 45.6976  7463.34  85.5246
 45.8956  7572.16  85.9696
 46.0936  7629.6  86.0486
 46.2916  7580.25  85.9941
 46.4896  7456.58  85.326
 46.6876  7346.87  85.41
 46.8856  7274.4  84.2354
 47.0836  7314.61  84.7258
 47.2816  7214.34  84.0197
 47.4796  7310.25  84.6911
 47.6776  7185.6  84.9039
 47.8756  7178.23  84.0392
 48.0736  7315.39  85.2946
 48.2716  7166.38  84.2371
 48.4696  7283.64  84.5081
 48.6676  7238.84  84.8399
 48.8656  7131.92  83.9377
 49.0636  7072.2  83.5416
 49.2616  6858.34  82.2952
 49.4596  7051.57  83.0053
 49.6576  6939.36  82.5769
 49.8556  7024.19  83.0987
 50.0536  7026.96  83.5678
 50.2516  6941.97  83.1902
 50.4496  6899.39  82.5878
 50.6476  7000.19  82.8731
 50.8456  6934.86  82.5681
 51.0436  6874.61  82.6479
 51.2416  6842.4  82.1258
 51.4396  6696.24  81.6327
 51.6376  6738.14  81.7212
 51.8356  6673.38  80.9596
 52.0336  6684.77  81.5499
 52.2316  6526.25  80.9219
 52.4296  6681.38  81.561
 52.6276  6574.78  81.0241
 52.8256  6690.65  81.2939
 53.0236  6551.43  81.0935
 53.2216  6530.28  80.9693
 53.4196  6466.63  80.5261
 53.6176  6372.74  80.4122
 53.8156  6479.87  80.7531
 54.0136  6492.11  81.0016
 54.2116  6396.71  80.0729
 54.4096  6410.52  80.2001
 54.6076  6427.92  80.6657
 54.8056  6444.96  80.5586
 55.0036  6363.42  80.317
 55.2016  6405.76  80.1766
 55.3996  6375.49  80.0263
 55.5976  6299.52  79.7427
 55.7956  6364.67  79.9655
 55.9936  6312.56  79.7739
 56.1916  6340.9  79.971
 56.3896  6356.05  80.0511
 56.5876  6269.11  80.0614
 56.7856  6282.37  79.6282
 56.9836  6270.96  79.341
 57.1816  6321.73  80.0428
 57.3796  6318.06  79.8084
 57.5776  6343.47  79.9041
 57.7756  6208.16  79.6817
 57.9736  6268.99  79.7395
 58.1716  6219.75  79.6672
 58.3696  6244.84  79.5729
 58.5676  6351.4  79.7136
 58.7656  6220.31  79.5597
 58.9636  6383.28  80.6371
 59.1616  6283.3  80.1285
 59.3596  6498.39  80.7257
 59.5576  6469.14  80.6023
 59.7556  6287.01  79.8863
 59.9536  6310.18  79.93
 60.1516  6447.81  81.6739
 60.1996  0.0000000E+00  0.0000000E+00