Folder: echemistpy/docs/examples/opeando_xrd/IS17_D/Data/IS17_D (part 112)

File: 17_Db_f00133.xye
# /beamlines/bl04/projects/cycle2025-II/20250340211-lsimonelli/DATA/IS17_D/17_Db_f00133.xye : mythproc.py merge -s 0.006 -l 0.5 -f /beamlines/bl04/inhouse/ff/FlatField/ff_20Nov2024rod8mm60s_17keV.raw -b True -c true -o xye /beamlines/bl04/projects/cycle2025-II/20250340211-lsimonelli/DATA/IS17_D/17_Db_00133.dat
# IsMon = [6767229, 6766155, 6765211]  IsPos = [-1.5000, -2.4884, -3.4988]
# Wave = 0.4962  CalPath /beamlines/bl04/projects/cycle2025-II/20250340211-lsimonelli/DATA/Align/Si_Pos1_25keV_f00001.cal
# Date = 2025-09-25_06:45:59 Dt = 4.8000  Bin = 0.0060  <imon> = 6766198 +/- 824 (Min/Max) 6765211 / 6767229
# icurr 251.1553  mocoIn 1.7128E-05  mocoOut 0.8037  i15 7.08851e+06  imon 6.7662e+06  i7 5.0000  iEMpd_timer 4.8000  iEMpd_1 3.5496E-08  iEMpd_2 8.0270E-08  iEMpd_3 1.7288E-08  iEMpd_4 4.9190E-08  iEMhp_timer 4.8000  iEMhp_1 4.9057E-06  iEMhp_2 -2.6549E-08  iEMhp_3 -2.4068E-08  iEMhp_4 -2.0798E-08
#      9776
 1.7416  70035.1  264.697
 1.9396  48386.5  220.299
 2.1376  35260.4  188.056
 2.3356  31747.9  178.068
 2.5336  29994.9  173.692
 2.7316  26973.8  164.837
 2.9296  25708.9  161.078
 3.1276  25147.5  158.854
 3.3256  24543.9  156.601
 3.5236  26061.3  161.171
 3.7216  23944  155.746
 3.9196  23544.6  153.627
 4.1176  23492.5  153.253
 4.3156  24417.2  156.418
 4.5136  26904.9  163.156
 4.7116  27928.3  167.376
 4.9096  26982.4  163.949
 5.1076  26704.2  163.681
 5.3056  26814.1  163.747
 5.5036  26620  163.063
 5.7016  27180.6  164.733
 5.8996  27650.3  165.379
 6.0976  28565  169.502
 6.2956  28578.8  168.9
 6.4936  29137.4  169.729
 6.6916  29784  172.597
 6.8896  30584.7  174.757
 7.0876  31775.7  178.78
 7.2856  31418.3  176.912
 7.4836  31834.8  177.428
 7.6816  32775.4  180.536
 7.8796  33662.2  182.989
 8.0776  35479.2  188.854
 8.2756  37124.2  191.797
 8.4736  37783.4  193.297
 8.6716  36788.3  191.353
 8.8696  38166  195.407
 9.0676  37252.8  192.363
 9.2656  35719.1  189.072
 9.4636  34964.2  185.518
 9.6616  34096.2  183.933
 9.8596  33613.8  182.044
 10.0576  31702  177.474
 10.2556  30869.4  175.589
 10.4536  30898.3  175.263
 10.6516  31524  177.223
 10.8496  28106.4  166.774
 11.0476  27308.7  164.405
 11.2456  27771.4  166.351
 11.4436  27782.9  165.529
 11.6416  26172.9  160.997
 11.8396  25180.2  158.121
 12.0376  24409.5  155.327
 12.2356  24555  156.209
 12.4336  24351.1  155.1
 12.6316  24297.2  155.194
 12.8296  24385.6  155.094
 13.0276  24604.6  156
 13.2256  24480.2  155.957
 13.4236  24577.4  156.043
 13.6216  24928  157.151
 13.8196  27083.7  163.253
 14.0176  23782.8  153.579
 14.2156  23372.1  151.28
 14.4136  22406.3  149.501
 14.6116  21770.8  146.57
 14.8096  21121.2  144.343
 15.0076  20443.1  145.911
 15.2056  19289  137.572
 15.4036  18538.2  135.691
 15.6016  18149.2  133.351
 15.7996  17719  132.037
 15.9976  17408.6  133.79
 16.1956  16954.9  129.89
 16.3936  16875.3  128.776
 16.5916  16511.3  128.018
 16.7896  16745  128.982
 16.9876  16341.3  128.872
 17.1856  16130.5  126.419
 17.3836  15566.3  124.093
 17.5816  15431.5  124.034
 17.7796  15259.7  123.275
 17.9776  15088.4  123.371
 18.1756  15470.6  123.638
 18.3736  15097.7  122.627
 18.5716  14557.7  120.166
 18.7696  14528.8  119.604
 18.9676  14404.5  118.9
 19.1656  14219  118.723
 19.3636  14022.9  118.092
 19.5616  13974.4  118.063
 19.7596  14426.7  119.338
 19.9576  14867  121.206
 20.1556  13803.8  117.308
 20.3536  13745.7  116.445
 20.5516  13361.6  115.245
 20.7496  13169.6  114.262
 20.9476  13229.5  114.362
 21.1456  13217.7  114.646
 21.3436  12939.1  113.384
 21.5416  13018.1  113.741
 21.7396  12795.5  112.605
 21.9376  12670.6  111.83
 22.1356  12887.6  113.054
 22.3336  12375.5  110.926
 22.5316  12511.7  111.628
 22.7296  12455.4  110.747
 22.9276  12343.4  110.91
 23.1256  12565.2  111.386
 23.3236  12636.7  112.262
 23.5216  12628.7  111.864
 23.7196  12621.1  111.994
 23.9176  12485.2  110.926
 24.1156  12285.1  110.497
 24.3136  12035.7  110.166
 24.5116  12056  109.78
 24.7096  11900.9  108.875
 24.9076  11578  107.432
 25.1056  11371.8  106.938
 25.3036  11135.7  105.336
 25.5016  11157  105.469
 25.6996  11196.5  105.24
 25.8976  11129.6  105.346
 26.0956  11023.3  104.88
 26.2936  10993  104.385
 26.4916  11159.8  105.019
 26.6896  10854.6  103.891
 26.8876  10778.5  103.38
 27.0856  10694.5  103.04
 27.2836  10587.6  102.409
 27.4816  10439.5  101.623
 27.6796  10199.3  100.806
 27.8776  10644.3  102.845
 28.0756  10142.1  100.68
 28.2736  10151.2  100.301
 28.4716  9979.33  99.5067
 28.6696  9990.12  99.4049
 28.8676  9944.98  99.5296
 29.0656  9732.17  98.4379
 29.2636  9806.93  98.6064
 29.4616  9514.27  97.3161
 29.6596  9566.23  97.1478
 29.8576  9306.3  96.4968
 30.0556  9504.56  97.3959
 30.2536  9350.92  96.3934
 30.4516  9609.51  97.3446
 30.6496  9703.04  97.5554
 30.8476  9495.21  96.9556
 31.0456  9513.17  97.0108
 31.2436  9536.92  96.3899
 31.4416  9344.09  95.5855
 31.6396  9445.12  96.1465
 31.8376  9476.83  95.8148
 32.0356  9383.4  95.939
 32.2336  9355.18  95.1863
 32.4316  8992.72  93.7321
 32.6296  9033.69  93.7811
 32.8276  8918.95  92.9774
 33.0256  8968.89  93.2934
 33.2236  9092.57  94.0803
 33.4216  8960.33  93.0865
 33.6196  8880.28  92.9643
 33.8176  8820.44  92.8122
 34.0156  8801.31  92.3429
 34.2136  8836.35  92.5438
 34.4116  8636.32  91.6646
 34.6096  8721.89  91.9896
 34.8076  8555.39  91.5253
 35.0056  8586.62  91.3571
 35.2036  8709.45  92.2357
 35.4016  8450.15  90.7684
 35.5996  8511.15  91.1285
 35.7976  8480.47  91.2321
 35.9956  8561.53  91.3166
 36.1936  8508.65  90.888
 36.3916  8433.91  90.6852
 36.5896  8355.91  91.2522
 36.7876  8076.77  89.1159
 36.9856  7987.43  88.6462
 37.1836  8042.49  88.0705
 37.3816  8131.97  88.9236
 37.5796  8188.45  90.9596
 37.7776  8236.19  89.5732
 37.9756  8356.59  90.1131
 38.1736  8335.59  90.1963
 38.3716  8207.1  89.7729
 38.5696  8051.84  89.2939
 38.7676  8043.42  88.7529
 38.9656  8061.02  88.4783
 39.1636  8105.47  88.9894
 39.3616  7945.48  88.0481
 39.5596  7880.29  88.5179
 39.7576  7952.3  88.3116
 39.9556  7904.1  87.6838
 40.1536  8118.38  89.0655
 40.3516  8103.39  88.9917
 40.5496  7951.01  88.4056
 40.7476  7988.48  88.6134
 40.9456  8129.47  89.1505
 41.1436  8044.79  88.4041
 41.3416  7925.25  88.0835
 41.5396  7928.08  87.9071
 41.7376  7892.99  87.9704
 41.9356  7916.1  87.9586
 42.1336  7939.11  88.2178
 42.3316  7862.72  88.0077
 42.5296  7923.02  87.8565
 42.7276  7943.5  88.218
 42.9256  7874.1  87.7003
 43.1236  7880.82  87.8401
 43.3216  7973.18  88.0991
 43.5196  7791.29  87.1483
 43.7176  7777.86  87.4808
 43.9156  7656.44  86.7111
 44.1136  7623.95  86.0798
 44.3116  7551.12  85.6816
 44.5096  7506.66  85.7369
 44.7076  7577.53  86.0701
 44.9056  7685.38  86.5435
 45.1036  7670.93  86.0709
 45.3016  7595.87  86.1648
 45.4996  7711.64  86.7569
 45.6976  7480.09  85.6248
 45.8956  7544.75  85.802
 46.0936  7710.45  86.4794
 46.2916  7591.17  86.0453
 46.4896  7691.77  86.6483
 46.6876  7385.88  85.6224
 46.8856  7528.37  85.6921
 47.0836  7513.25  85.8632
 47.2816  7441.51  85.3329
 47.4796  7395.94  85.1816
 47.6776  7325.64  85.7263
 47.8756  7499.23  85.8888
 48.0736  7445.73  86.046
 48.2716  7313.29  85.0895
 48.4696  7480.64  85.6424
 48.6676  7511.21  86.4235
 48.8656  7431.59  85.6726
 49.0636  7530.75  86.1977
 49.2616  7328.5  85.0776
 49.4596  7340.55  84.6903
 49.6576  7335.77  84.892
 49.8556  7350.41  85.006
 50.0536  7399.91  85.7435
 50.2516  7331.81  85.4866
 50.4496  7400.18  85.533
 50.6476  7303.87  84.6484
 50.8456  7251.92  84.4252
 51.0436  7054.63  83.7344
 51.2416  7049.56  83.3743
 51.4396  6892.86  82.846
 51.6376  7056.79  83.6421
 51.8356  7096.86  83.49
 52.0336  7166.92  84.4208
 52.2316  7000.29  83.7975
 52.4296  7014.94  83.5895
 52.6276  6999.85  83.6122
 52.8256  7033.67  83.3635
 53.0236  7115.28  84.4888
 53.2216  6942.3  83.4747
 53.4196  7003.9  83.7714
 53.6176  6924.41  83.8061
 53.8156  7028.68  84.0878
 54.0136  6735.67  82.4994
 54.2116  6805.99  82.5585
 54.4096  6589.15  81.3008
 54.6076  6627.8  81.8935
 54.8056  6647.25  81.78
 55.0036  6666.91  82.1685
 55.2016  6690.55  81.8988
 55.3996  6406.48  80.2043
 55.5976  6543.63  81.2381
 55.7956  6554.71  81.1169
 55.9936  6639.22  81.7845
 56.1916  6431.42  80.5228
 56.3896  6306.41  79.7197
 56.5876  6345.94  80.5175
 56.7856  6370.72  80.1828
 56.9836  6452.04  80.4558
 57.1816  6558.56  81.4894
 57.3796  6277.67  79.5399
 57.5776  6345.36  79.8763
 57.7756  6220  79.7271
 57.9736  6257.41  79.6413
 58.1716  6250.48  79.8571
 58.3696  6033.2  78.2264
 58.5676  6090.05  78.0644
 58.7656  6041.83  78.4303
 58.9636  6212.68  79.5581
 59.1616  6028.16  78.5004
 59.3596  6072.64  78.0533
 59.5576  6049.09  77.9601
 59.7556  5942.29  77.6837
 59.9536  6008.03  78.0114
 60.1516  5924.17  78.3057
 60.1996  0.0000000E+00  0.0000000E+00

File: 17_Db_f00134.xye
# /beamlines/bl04/projects/cycle2025-II/20250340211-lsimonelli/DATA/IS17_D/17_Db_f00134.xye : mythproc.py merge -s 0.006 -l 0.5 -f /beamlines/bl04/inhouse/ff/FlatField/ff_20Nov2024rod8mm60s_17keV.raw -b True -c true -o xye /beamlines/bl04/projects/cycle2025-II/20250340211-lsimonelli/DATA/IS17_D/17_Db_00134.dat
# IsMon = [6771036, 6775393, 6776536]  IsPos = [-1.4999, -2.4884, -3.4988]
# Wave = 0.4962  CalPath /beamlines/bl04/projects/cycle2025-II/20250340211-lsimonelli/DATA/Align/Si_Pos1_25keV_f00001.cal
# Date = 2025-09-25_07:02:29 Dt = 4.8000  Bin = 0.0060  <imon> = 6774322 +/- 2370 (Min/Max) 6771036 / 6776536
# icurr 252.0047  mocoIn 1.7197E-05  mocoOut 0.8071  i15 7.09679e+06  imon 6.77432e+06  i7 6.0000  iEMpd_timer 4.8000  iEMpd_1 3.5885E-08  iEMpd_2 7.8415E-08  iEMpd_3 1.8096E-08  iEMpd_4 4.9523E-08  iEMhp_timer 4.8000  iEMhp_1 4.9237E-06  iEMhp_2 -2.5943E-08  iEMhp_3 -2.5385E-08  iEMhp_4 -2.2516E-08
#      9776
 1.7416  69972.8  264.664
 1.9396  48379.2  220.359
 2.1376  35474.7  188.687
 2.3356  32024.6  178.9
 2.5336  29746.5  173.026
 2.7316  27021.8  165.003
 2.9296  25903.9  161.703
 3.1276  25453.9  159.843
 3.3256  24503.2  156.477
 3.5236  25988.6  160.948
 3.7216  23972.5  155.834
 3.9196  23752.9  154.307
 4.1176  23611.7  153.654
 4.3156  24466.5  156.565
 4.5136  26876.8  163.071
 4.7116  27944.5  167.421
 4.9096  27215  164.656
 5.1076  26962.9  164.485
 5.3056  26754.5  163.548
 5.5036  26795.7  163.595
 5.7016  27063.3  164.376
 5.8996  27810.6  165.857
 6.0976  28615.5  169.666
 6.2956  28657.6  169.12
 6.4936  29651.9  171.221
 6.6916  29901.8  172.939
 6.8896  30650.3  174.941
 7.0876  31530.9  178.185
 7.2856  31606.4  177.442
 7.4836  31985.3  177.847
 7.6816  32847.2  180.734
 7.8796  33641.8  182.91
 8.0776  35863.9  189.846
 8.2756  37170.1  191.881
 8.4736  37789.4  193.28
 8.6716  37142.7  192.251
 8.8696  37965.6  194.901
 9.0676  37638.4  193.367
 9.2656  36053.2  189.957
 9.4636  35172.6  186.061
 9.6616  34403.5  184.751
 9.8596  33642  182.151
 10.0576  31663  177.366
 10.2556  30919.8  175.751
 10.4536  31448.8  176.828
 10.6516  31984  178.535
 10.8496  28251.7  167.207
 11.0476  27574.3  165.205
 11.2456  28062.1  167.21
 11.4436  27733.9  165.377
 11.6416  26237.7  161.198
 11.8396  25264.8  158.392
 12.0376  24458.8  155.483
 12.2356  24798.3  156.977
 12.4336  24509.4  155.604
 12.6316  24221.2  154.961
 12.8296  24313.2  154.859
 13.0276  24567.6  155.871
 13.2256  24715.5  156.712
 13.4236  24649.3  156.263
 13.6216  24834.6  156.865
 13.8196  27455.1  164.361
 14.0176  24049  154.425
 14.2156  23519  151.749
 14.4136  22268.8  149.044
 14.6116  22035.9  147.462
 14.8096  21193.9  144.588
 15.0076  20395.6  145.745
 15.2056  19330.8  137.694
 15.4036  18430.8  135.268
 15.6016  18154.3  133.35
 15.7996  17725  132.027
 15.9976  17411.2  133.753
 16.1956  17100.6  130.469
 16.3936  16812.8  128.542
 16.5916  16641.9  128.534
 16.7896  16639.6  128.573
 16.9876  16332.2  128.849
 17.1856  16130.5  126.423
 17.3836  15553.1  124.055
 17.5816  15551.2  124.533
 17.7796  15390.9  123.815
 17.9776  15172.9  123.717
 18.1756  15468.1  123.632
 18.3736  15163  122.898
 18.5716  14617.2  120.413
 18.7696  14559.6  119.736
 18.9676  14464.2  119.148
 19.1656  14196.3  118.625
 19.3636  14159.5  118.668
 19.5616  14124.3  118.692
 19.7596  14377.2  119.148
 19.9576  14855.8  121.157
 20.1556  13754.5  117.086
 20.3536  13650.8  116.043
 20.5516  13499.3  115.834
 20.7496  13208.4  114.524
 20.9476  13320.8  114.772
 21.1456  13184.1  114.497
 21.3436  13005.5  113.667
 21.5416  12859.4  113.043
 21.7396  12813.1  112.685
 21.9376  12778.6  112.301
 22.1356  12949.7  113.172
 22.3336  12556.9  111.72
 22.5316  12509.4  111.597
 22.7296  12523.7  111.034
 22.9276  12423.7  111.251
 23.1256  12559.6  111.335
 23.3236  12760.6  112.817
 23.5216  12731  112.311
 23.7196  12508.3  111.279
 23.9176  12590.6  111.396
 24.1156  12522.6  111.558
 24.3136  12052.1  110.254
 24.5116  12093.5  109.963
 24.7096  11872.4  108.77
 24.9076  11763.4  108.3
 25.1056  11442.2  107.273
 25.3036  11172.9  105.508
 25.5016  11128  105.331
 25.6996  11213.1  105.315
 25.8976  11201.5  105.701
 26.0956  11062.2  105.051
 26.2936  11018.5  104.498
 26.4916  11228.9  105.351
 26.6896  10856.9  103.897
 26.8876  10713.5  103.074
 27.0856  10603.9  102.594
 27.2836  10548  102.218
 27.4816  10454.1  101.7
 27.6796  10322.3  101.412
 27.8776  10624.7  102.759
 28.0756  10253.7  101.23
 28.2736  10208.7  100.594
 28.4716  9940.75  99.3123
 28.6696  10035.9  99.6274
 28.8676  9955.4  99.5885
 29.0656  9745.05  98.5062
 29.2636  9874.85  98.951
 29.4616  9408.22  96.7562
 29.6596  9494.62  96.769
 29.8576  9356.68  96.7407
 30.0556  9410.03  96.89
 30.2536  9465.28  96.9703
 30.4516  9591.03  97.2749
 30.6496  9524.43  96.6626
 30.8476  9398.65  96.4675
 31.0456  9600.74  97.4544
 31.2436  9524.69  96.345
 31.4416  9411.26  95.9363
 31.6396  9705.92  97.4845
 31.8376  9619.24  96.5567
 32.0356  9466.93  96.371
 32.2336  9327.62  95.0595
 32.4316  9046.07  94.0044
 32.6296  9016.04  93.6935
 32.8276  9119.95  94.0148
 33.0256  9022.07  93.5733
 33.2236  9065.19  93.952
 33.4216  8934.07  92.9428
 33.6196  8905.36  93.0906
 33.8176  8909.81  93.2844
 34.0156  8714.02  91.8791
 34.2136  8885.82  92.8127
 34.4116  8662.67  91.7943
 34.6096  8671.75  91.7254
 34.8076  8544.39  91.4664
 35.0056  8600.18  91.4244
 35.2036  8788.33  92.6581
 35.4016  8483.67  90.9329
 35.5996  8541.52  91.2924
 35.7976  8477.98  91.2084
 35.9956  8663.6  91.8607
 36.1936  8567.49  91.1984
 36.3916  8413.78  90.5735
 36.5896  8350.33  91.2295
 36.7876  8164.17  89.5857
 36.9856  8099.65  89.2585
 37.1836  8120.18  88.4798
 37.3816  8173.61  89.1364
 37.5796  8071.9  90.3121
 37.7776  8288.77  89.8708
 37.9756  8222.47  89.3963
 38.1736  8314.27  90.0863
 38.3716  8212.8  89.796
 38.5696  8116.68  89.6503
 38.7676  8056.25  88.831
 38.9656  7975.04  88.0119
 39.1636  8111.96  89.035
 39.3616  8072.8  88.7548
 39.5596  7967.21  89.011
 39.7576  7911.49  88.0865
 39.9556  8073.03  88.6142
 40.1536  8151.52  89.2456
 40.3516  8132.71  89.1501
 40.5496  7953.6  88.4194
 40.7476  8039.63  88.9041
 40.9456  8041.52  88.6704
 41.1436  8074.75  88.5708
 41.3416  7948.44  88.2089
 41.5396  7979.89  88.1913
 41.7376  8069.01  88.948
 41.9356  7864.6  87.6733
 42.1336  8234.58  89.8588
 42.3316  7952.84  88.5006
 42.5296  7864.77  87.5354
 42.7276  7910.3  88.0268
 42.9256  7871.95  87.6908
 43.1236  7747.85  87.1017
 43.3216  7949.19  87.9663
 43.5196  7731.94  86.8269
 43.7176  7874.89  88.0135
 43.9156  7686.98  86.8693
 44.1136  7558.28  85.6948
 44.3116  7617.4  86.038
 44.5096  7536.43  85.8923
 44.7076  7608.17  86.2308
 44.9056  7843.42  87.4318
 45.1036  7777.07  86.6741
 45.3016  7617.97  86.294
 45.4996  7569.49  85.9518
 45.6976  7587.18  86.2302
 45.8956  7671.66  86.5271
 46.0936  7720.25  86.81
 46.2916  7664.99  86.477
 46.4896  7614.24  86.2111
 46.6876  7490.49  86.2335
 46.8856  7490.88  85.4799
 47.0836  7606.9  86.4009
 47.2816  7497.51  85.6508
 47.4796  7441.33  85.4352
 47.6776  7430.5  86.3365
 47.8756  7433.85  85.5169
 48.0736  7517.19  86.4628
 48.2716  7331.49  85.1977
 48.4696  7537.37  85.9663
 48.6676  7540.81  86.5937
 48.8656  7468.36  85.8976
 49.0636  7515.91  86.1237
 49.2616  7392.46  85.4416
 49.4596  7395.44  85.0009
 49.6576  7442.56  85.5149
 49.8556  7427.88  85.4527
 50.0536  7409.47  85.8043
 50.2516  7373.61  85.7285
 50.4496  7271.08  84.7815
 50.6476  7435.54  85.4074
 50.8456  7287.45  84.6411
 51.0436  7101.38  83.9945
 51.2416  7049.86  83.3606
 51.4396  6971.1  83.3028
 51.6376  7060.64  83.6528
 51.8356  7108.04  83.5465
 52.0336  7100.43  84.0434
 52.2316  7053.61  84.1243
 52.4296  6985.82  83.4112
 52.6276  6911.17  83.0728
 52.8256  7136  83.9713
 53.0236  7112.04  84.4848
 53.2216  7117.47  84.5593
 53.4196  6926.69  83.3206
 53.6176  6949.25  83.9658
 53.8156  7009.19  83.9902
 54.0136  6788.58  82.8246
 54.2116  6821.75  82.6609
 54.4096  6672.93  81.8234
 54.6076  6686.3  82.2467
 54.8056  6601.26  81.4968
 55.0036  6588.2  81.8248
 55.2016  6764.45  82.4333
 55.3996  6524.97  80.9419
 55.5976  6563.44  81.378
 55.7956  6553.06  81.1233
 55.9936  6651.99  81.8618
 56.1916  6489.54  80.8889
 56.3896  6342.33  79.9414
 56.5876  6439.68  81.121
 56.7856  6465.47  80.7827
 56.9836  6434.18  80.3487
 57.1816  6495.09  81.0943
 57.3796  6321.76  79.8197
 57.5776  6315.6  79.6394
 57.7756  6204.36  79.6334
 57.9736  6298.46  79.8852
 58.1716  6205.55  79.5761
 58.3696  5955.23  77.7087
 58.5676  6101.31  78.1299
 58.7656  6094.21  78.7577
 58.9636  6014.35  78.2672
 59.1616  6069.95  78.7632
 59.3596  6034.52  77.7913
 59.5576  6171.61  78.727
 59.7556  6030.06  78.2368
 59.9536  6109.82  78.6508
 60.1516  6074.96  79.2773
 60.1996  0.0000000E+00  0.0000000E+00