Folder: echemistpy/docs/examples/opeando_xrd/IS17_D/Data/IS17_D (part 22)

File: 17_Da_f00061.xye
# /beamlines/bl04/projects/cycle2025-II/20250340211-lsimonelli/DATA/IS17_D/17_Da_f00061.xye : mythproc.py merge -s 0.006 -l 0.5 -f /beamlines/bl04/inhouse/ff/FlatField/ff_20Nov2024rod8mm60s_17keV.raw -b True -c true -o xye /beamlines/bl04/projects/cycle2025-II/20250340211-lsimonelli/DATA/IS17_D/17_Da_00061.dat
# IsMon = [6760978, 6758195, 6757560]  IsPos = [-1.4999, -2.4884, -3.4988]
# Wave = 0.4962  CalPath /beamlines/bl04/projects/cycle2025-II/20250340211-lsimonelli/DATA/Align/Si_Pos1_25keV_f00001.cal
# Date = 2025-09-24_10:31:33 Dt = 4.8000  Bin = 0.0060  <imon> = 6758911 +/- 1484 (Min/Max) 6757560 / 6760978
# icurr 249.7803  mocoIn 1.7042E-05  mocoOut 0.8002  i15 7.07688e+06  imon 6.75891e+06  i7 5.6667  iEMpd_timer 4.8000  iEMpd_1 3.5511E-08  iEMpd_2 7.8798E-08  iEMpd_3 1.5819E-08  iEMpd_4 4.8196E-08  iEMhp_timer 4.8000  iEMhp_1 4.8806E-06  iEMhp_2 -2.5505E-08  iEMhp_3 -2.4968E-08  iEMhp_4 -2.2809E-08
#      9776
 1.7416  69336  263.353
 1.9396  45737.4  214.163
 2.1376  32416.3  180.298
 2.3356  29000.9  170.177
 2.5336  26842  164.297
 2.7316  25241.7  159.452
 2.9296  24225.1  156.372
 3.1276  23806.2  154.558
 3.3256  23591.6  153.542
 3.5236  25207  158.518
 3.7216  23135.3  153.097
 3.9196  22918.6  151.611
 4.1176  22720.1  150.714
 4.3156  23899.8  154.751
 4.5136  26323  161.389
 4.7116  27216.5  165.238
 4.9096  26783.4  163.354
 5.1076  26430.1  162.84
 5.3056  26626.3  163.19
 5.5036  26546.8  162.837
 5.7016  27148.5  164.637
 5.8996  27653.9  165.378
 6.0976  28491.2  169.299
 6.2956  28869.9  169.768
 6.4936  29518.9  170.857
 6.6916  29913.2  172.99
 6.8896  30726.9  175.179
 7.0876  31824.6  179.016
 7.2856  31686  177.678
 7.4836  32094  178.156
 7.6816  32910  180.937
 7.8796  34376.9  184.939
 8.0776  36114.9  190.545
 8.2756  37937.6  193.884
 8.4736  38549.1  195.247
 8.6716  37794.4  193.968
 8.8696  37592.5  193.911
 9.0676  36785.4  191.171
 9.2656  35869.3  189.463
 9.4636  35801.7  187.675
 9.6616  34618.5  185.341
 9.8596  33225.4  181.023
 10.0576  31772.4  177.692
 10.2556  30685.8  175.064
 10.4536  29724.8  171.903
 10.6516  28890.7  169.666
 10.8496  28091.8  166.727
 11.0476  27239.5  164.203
 11.2456  26844.5  163.545
 11.4436  27313.4  164.119
 11.6416  26269.6  161.315
 11.8396  24844.8  157.077
 12.0376  24860.9  156.779
 12.2356  24319.2  155.456
 12.4336  24220.8  154.684
 12.6316  23901  153.922
 12.8296  24290.3  154.815
 13.0276  24877  156.859
 13.2256  24738.3  156.782
 13.4236  24591  156.085
 13.6216  24506.6  155.827
 13.8196  24579.4  155.832
 14.0176  24264.3  155.122
 14.2156  23571.2  151.933
 14.4136  22488.4  149.767
 14.6116  22135.5  147.8
 14.8096  21552.2  145.825
 15.0076  20416.5  145.75
 15.2056  19908.7  139.771
 15.4036  19073.9  137.633
 15.6016  18793.6  135.702
 15.7996  18226.5  133.92
 15.9976  17492.3  134.126
 16.1956  17066.9  130.35
 16.3936  16601.4  127.738
 16.5916  16468.4  127.856
 16.7896  16620.8  128.508
 16.9876  16446.3  129.298
 17.1856  15909.5  125.549
 17.3836  15384.8  123.36
 17.5816  15370.6  123.786
 17.7796  15092.2  122.598
 17.9776  14931.4  122.74
 18.1756  14982.6  121.649
 18.3736  14785.2  121.364
 18.5716  14729.3  120.884
 18.7696  14693.4  120.303
 18.9676  14189  118.021
 19.1656  14192.9  118.603
 19.3636  14083.7  118.346
 19.5616  14015.5  118.23
 19.7596  14231.4  118.517
 19.9576  14877.4  121.254
 20.1556  14212.1  119.038
 20.3536  13777.2  116.573
 20.5516  13577.7  116.177
 20.7496  13191.8  114.453
 20.9476  13170.3  114.114
 21.1456  13402  115.452
 21.3436  13083.5  114.017
 21.5416  13014.5  113.716
 21.7396  12824.6  112.727
 21.9376  12782.1  112.313
 22.1356  12932.6  113.091
 22.3336  12719.3  112.459
 22.5316  12819.5  112.986
 22.7296  12864.8  112.542
 22.9276  12776.5  112.843
 23.1256  12981.5  113.212
 23.3236  12636.8  112.25
 23.5216  12690.3  112.134
 23.7196  12481.4  111.15
 23.9176  12467.7  110.845
 24.1156  12389.2  110.975
 24.3136  11921.2  109.648
 24.5116  11970.2  109.396
 24.7096  11595.9  107.492
 24.9076  11469.2  106.926
 25.1056  11177.4  106.023
 25.3036  11165.4  105.482
 25.5016  11070.3  105.061
 25.6996  11057.4  104.586
 25.8976  11070.3  105.076
 26.0956  11076.4  105.136
 26.2936  10991  104.374
 26.4916  10933.2  103.98
 26.6896  10769.5  103.492
 26.8876  10586.7  102.462
 27.0856  10586.1  102.52
 27.2836  10466.2  101.826
 27.4816  10391.6  101.39
 27.6796  10467.2  102.142
 27.8776  10269.4  101.024
 28.0756  10285.1  101.397
 28.2736  10262.3  100.857
 28.4716  9967.43  99.4491
 28.6696  10050  99.7086
 28.8676  9867.66  99.1419
 29.0656  9858.25  99.0775
 29.2636  9862.89  98.8945
 29.4616  9696.31  98.246
 29.6596  9706.84  97.864
 29.8576  9600.56  98.0148
 30.0556  9594.28  97.8472
 30.2536  9823.88  98.8144
 30.4516  9535.08  96.9946
 30.6496  9550.23  96.7966
 30.8476  9643.65  97.7152
 31.0456  9345.47  96.1438
 31.2436  9387.34  95.6271
 31.4416  9190.62  94.8032
 31.6396  9341.34  95.6223
 31.8376  9378.78  95.3608
 32.0356  9274.24  95.3952
 32.2336  9199.09  94.3875
 32.4316  9177.69  94.6992
 32.6296  8948.02  93.3454
 32.8276  9078.98  93.7975
 33.0256  8993.05  93.4311
 33.2236  8941.3  93.3021
 33.4216  9127.63  93.9588
 33.6196  8824.78  92.6815
 33.8176  8925.82  93.3739
 34.0156  8803.04  92.3474
 34.2136  8846.85  92.6104
 34.4116  8747.36  92.2464
 34.6096  8663.04  91.6805
 34.8076  8552.01  91.5003
 35.0056  8668.7  91.807
 35.2036  8542.61  91.3436
 35.4016  8540.26  91.2594
 35.5996  8509.33  91.1236
 35.7976  8392.42  90.777
 35.9956  8447.79  90.7184
 36.1936  8360.02  90.108
 36.3916  8400.64  90.5077
 36.5896  8291.55  90.8886
 36.7876  8407.91  90.9349
 36.9856  8188.02  89.7633
 37.1836  8260.42  89.2595
 37.3816  8264.6  89.6506
 37.5796  8139.74  90.6859
 37.7776  8030.86  88.4491
 37.9756  8097.09  88.6951
 38.1736  8150.47  89.188
 38.3716  8126.79  89.3362
 38.5696  8092.36  89.5223
 38.7676  7851.53  87.6823
 38.9656  8068.83  88.5264
 39.1636  7927.91  88.0009
 39.3616  7981.04  88.2433
 39.5596  7950.32  88.9236
 39.7576  7918.81  88.1139
 39.9556  7985.33  88.134
 40.1536  8054.91  88.7151
 40.3516  8112.46  89.038
 40.5496  8045.68  88.9378
 40.7476  8071  89.0841
 40.9456  8074.44  88.8504
 41.1436  8047.14  88.4152
 41.3416  8038.65  88.7141
 41.5396  7972.47  88.1512
 41.7376  7927.5  88.1718
 41.9356  7824.83  87.4572
 42.1336  7920.92  88.1355
 42.3316  7868.79  88.0503
 42.5296  7855.92  87.4863
 42.7276  7835.58  87.616
 42.9256  7824.48  87.4246
 43.1236  7775.67  87.2604
 43.3216  7900.84  87.7036
 43.5196  7699.6  86.644
 43.7176  7778.74  87.4885
 43.9156  7604.04  86.4192
 44.1136  7638.65  86.1671
 44.3116  7740.92  86.7563
 44.5096  7695.71  86.8136
 44.7076  7549.43  85.9138
 44.9056  7539.17  85.7128
 45.1036  7521.26  85.2391
 45.3016  7403.63  85.0585
 45.4996  7427.44  85.1424
 45.6976  7288.31  84.5191
 45.8956  7426.08  85.1235
 46.0936  7387.1  84.8998
 46.2916  7314.21  84.4659
 46.4896  7313.25  84.4945
 46.6876  7319.17  85.239
 46.8856  7254.01  84.117
 47.0836  7207.83  84.095
 47.2816  7110.74  83.4144
 47.4796  7182.13  83.929
 47.6776  7065.6  84.1847
 47.8756  7101.01  83.5787
 48.0736  7092.08  83.9759
 48.2716  6957.39  82.9986
 48.4696  7019.31  82.9706
 48.6676  7102.81  84.0399
 48.8656  7135.38  83.9619
 49.0636  7054.05  83.4197
 49.2616  6869.81  82.3702
 49.4596  6906.02  82.153
 49.6576  6898.66  82.3293
 49.8556  6871.72  82.1902
 50.0536  6842.07  82.458
 50.2516  6861.09  82.698
 50.4496  6797.1  81.9763
 50.6476  6810.03  81.7377
 50.8456  6806.1  81.7974
 51.0436  6559.99  80.7488
 51.2416  6657.26  81.0267
 51.4396  6553.65  80.7856
 51.6376  6471.07  80.094
 51.8356  6574.73  80.3737
 52.0336  6545.38  80.6894
 52.2316  6444.25  80.4102
 52.4296  6536.35  80.6794
 52.6276  6455  80.289
 52.8256  6578.29  80.6061
 53.0236  6331.57  79.7108
 53.2216  6391.04  80.1152
 53.4196  6286.62  79.3864
 53.6176  6378.82  80.4406
 53.8156  6279.27  79.4894
 54.0136  6371.46  80.2505
 54.2116  6270.27  79.2645
 54.4096  6302.32  79.5242
 54.6076  6302.09  79.8731
 54.8056  6117.93  78.4851
 55.0036  6239.34  79.656
 55.2016  6255.71  79.2977
 55.3996  6193.21  78.8796
 55.5976  6287.29  79.6626
 55.7956  6255.59  79.2765
 55.9936  6210.9  79.1252
 56.1916  6239.38  79.3256
 56.3896  6190.3  79.009
 56.5876  6108.66  79.0315
 56.7856  6188.58  79.028
 56.9836  6104.02  78.2679
 57.1816  6243.44  79.5362
 57.3796  6224.74  79.2224
 57.5776  6175.49  78.8376
 57.7756  6073.32  78.8162
 57.9736  6167.08  79.093
 58.1716  6154.49  79.2592
 58.3696  6152.02  78.996
 58.5676  6146.59  78.4303
 58.7656  6034.65  78.3858
 58.9636  6196.65  79.4658
 59.1616  6252.25  79.945
 59.3596  6325.88  79.6682
 59.5576  6344.12  79.8408
 59.7556  6391.78  80.5704
 59.9536  6083.41  78.5014
 60.1516  6166.11  79.8909
 60.1996  0.0000000E+00  0.0000000E+00

File: 17_Da_f00062.xye
# /beamlines/bl04/projects/cycle2025-II/20250340211-lsimonelli/DATA/IS17_D/17_Da_f00062.xye : mythproc.py merge -s 0.006 -l 0.5 -f /beamlines/bl04/inhouse/ff/FlatField/ff_20Nov2024rod8mm60s_17keV.raw -b True -c true -o xye /beamlines/bl04/projects/cycle2025-II/20250340211-lsimonelli/DATA/IS17_D/17_Da_00062.dat
# IsMon = [6759399, 6763137, 6765093]  IsPos = [-1.4999, -2.4884, -3.4988]
# Wave = 0.4962  CalPath /beamlines/bl04/projects/cycle2025-II/20250340211-lsimonelli/DATA/Align/Si_Pos1_25keV_f00001.cal
# Date = 2025-09-24_10:50:38 Dt = 4.8000  Bin = 0.0060  <imon> = 6762543 +/- 2362 (Min/Max) 6759399 / 6765093
# icurr 250.0158  mocoIn 1.7057E-05  mocoOut 0.7999  i15 7.08194e+06  imon 6.76254e+06  i7 7.3333  iEMpd_timer 4.8000  iEMpd_1 3.3172E-08  iEMpd_2 7.8136E-08  iEMpd_3 1.5555E-08  iEMpd_4 4.7468E-08  iEMhp_timer 4.8000  iEMhp_1 4.8847E-06  iEMhp_2 -2.4782E-08  iEMhp_3 -2.3925E-08  iEMhp_4 -2.0734E-08
#      9776
 1.7416  69977.4  264.67
 1.9396  45572.8  213.859
 2.1376  32292.8  180.024
 2.3356  28914.1  169.988
 2.5336  27356  165.926
 2.7316  25374.4  159.893
 2.9296  24208.2  156.34
 3.1276  23765.3  154.459
 3.3256  23359  152.793
 3.5236  25283.4  158.766
 3.7216  23133.5  153.091
 3.9196  22702.9  150.891
 4.1176  22613.5  150.377
 4.3156  23826  154.498
 4.5136  26274.3  161.237
 4.7116  27203.5  165.2
 4.9096  26578.9  162.733
 5.1076  26287.6  162.418
 5.3056  26785  163.665
 5.5036  26590  162.962
 5.7016  26737.2  163.387
 5.8996  27646.3  165.349
 6.0976  28361.2  168.925
 6.2956  28679.8  169.196
 6.4936  29485.1  170.754
 6.6916  29829.2  172.746
 6.8896  30771.4  175.311
 7.0876  31729.2  178.749
 7.2856  31662.4  177.618
 7.4836  31991.9  177.873
 7.6816  32985.4  181.149
 7.8796  34399.9  184.967
 8.0776  36026.1  190.275
 8.2756  38022.6  194.061
 8.4736  38091.6  194.051
 8.6716  37616  193.474
 8.8696  38026.5  195.02
 9.0676  36953.1  191.618
 9.2656  35691.8  189.005
 9.4636  35426.9  186.695
 9.6616  34768.5  185.73
 9.8596  33414.9  181.563
 10.0576  31634.2  177.316
 10.2556  30566.9  174.747
 10.4536  30016.3  172.768
 10.6516  29301.7  170.889
 10.8496  28185.4  167.004
 11.0476  27529.9  165.077
 11.2456  26867.9  163.614
 11.4436  27461.2  164.562
 11.6416  26202  161.11
 11.8396  24964  157.468
 12.0376  24880.9  156.823
 12.2356  24478.3  155.967
 12.4336  24318.7  155.001
 12.6316  23942.4  154.066
 12.8296  24366.3  155.058
 13.0276  25000.2  157.237
 13.2256  24819.8  157.04
 13.4236  24644.2  156.256
 13.6216  24548.8  155.975
 13.8196  24538.4  155.701
 14.0176  24151.8  154.752
 14.2156  23739.5  152.459
 14.4136  22582.2  150.085
 14.6116  22240.5  148.15
 14.8096  21659.5  146.183
 15.0076  20363.8  145.578
 15.2056  20101.8  140.417
 15.4036  19063.6  137.576
 15.6016  18838.5  135.839
 15.7996  18315.9  134.218
 15.9976  17707.8  134.944
 16.1956  16988.7  130.058
 16.3936  16789.1  128.464
 16.5916  16684.5  128.7
 16.7896  16526.3  128.148
 16.9876  16470  129.407
 17.1856  16073.8  126.207
 17.3836  15593.6  124.206
 17.5816  15073.6  122.606
 17.7796  15114.8  122.706
 17.9776  14927.5  122.725
 18.1756  15102  122.136
 18.3736  14902.8  121.842
 18.5716  14641.1  120.52
 18.7696  14707.4  120.356
 18.9676  14301.1  118.495
 19.1656  14167.3  118.487
 19.3636  14078.2  118.325
 19.5616  14147.9  118.79
 19.7596  14238  118.571
 19.9576  14916  121.406
 20.1556  14176.7  118.885
 20.3536  13848.8  116.88
 20.5516  13444.8  115.606
 20.7496  13420.8  115.446
 20.9476  13262.3  114.516
 21.1456  13310  115.045
 21.3436  12889.4  113.168
 21.5416  12945.8  113.419
 21.7396  12884.7  112.993
 21.9376  12927.1  112.938
 22.1356  12837.3  112.678
 22.3336  12741.3  112.539
 22.5316  12831  112.999
 22.7296  12856.6  112.491
 22.9276  12772.9  112.802
 23.1256  12948.1  113.043
 23.3236  12672.6  112.41
 23.5216  12715.9  112.255
 23.7196  12610.7  111.734
 23.9176  12469.5  110.871
 24.1156  12268.2  110.437
 24.3136  11889.4  109.518
 24.5116  12007.7  109.584
 24.7096  11683.3  107.911
 24.9076  11474.7  106.968
 25.1056  11084.4  105.594
 25.3036  11127.9  105.296
 25.5016  11219.5  105.764
 25.6996  11106.9  104.817
 25.8976  10985.2  104.683
 26.0956  11068.4  105.091
 26.2936  11019.5  104.502
 26.4916  11112.5  104.825
 26.6896  10636.3  102.851
 26.8876  10737.8  103.197
 27.0856  10581  102.473
 27.2836  10523.5  102.101
 27.4816  10370.5  101.291
 27.6796  10305.5  101.35
 27.8776  10270  101.038
 28.0756  10292.3  101.424
 28.2736  10164.2  100.376
 28.4716  10022.3  99.7236
 28.6696  10058.9  99.7519
 28.8676  10015  99.8864
 29.0656  9792.97  98.7475
 29.2636  9702.33  98.0885
 29.4616  9629.34  97.8876
 29.6596  9670.55  97.6621
 29.8576  9631.75  98.1548
 30.0556  9623.77  97.989
 30.2536  9779.89  98.5738
 30.4516  9508.28  96.8618
 30.6496  9551.53  96.8071
 30.8476  9482.5  96.8999
 31.0456  9469.52  96.7964
 31.2436  9369.29  95.553
 31.4416  9259.05  95.1702
 31.6396  9338.35  95.6237
 31.8376  9211.41  94.512
 32.0356  9154.5  94.792
 32.2336  9089.54  93.8488
 32.4316  9060.09  94.0883
 32.6296  9097.56  94.1165
 32.8276  9139.7  94.1118
 33.0256  9041.08  93.6793
 33.2236  8925.03  93.2235
 33.4216  9003.39  93.3181
 33.6196  8867.27  92.9029
 33.8176  8873.45  93.0893
 34.0156  8863.18  92.6578
 34.2136  8666.49  91.6636
 34.4116  8663.86  91.8003
 34.6096  8671.92  91.7278
 34.8076  8637.54  91.9506
 35.0056  8561.13  91.2324
 35.2036  8592.16  91.6073
 35.4016  8609.05  91.6179
 35.5996  8500.75  91.0747
 35.7976  8405.45  90.8375
 35.9956  8531.94  91.1647
 36.1936  8403.95  90.3502
 36.3916  8339.25  90.1764
 36.5896  8316.16  91.032
 36.7876  8395.09  90.8477
 36.9856  8295.51  90.3339
 37.1836  8176.3  88.786
 37.3816  8290.79  89.7716
 37.5796  8051.91  90.1844
 37.7776  8076.45  88.7133
 37.9756  7982  88.0657
 38.1736  8220.94  89.5791
 38.3716  8084.18  89.1052
 38.5696  8098.61  89.5627
 38.7676  7930.19  88.1396
 38.9656  7929.65  87.7716
 39.1636  7904.35  87.899
 39.3616  8080.66  88.7998
 39.5596  7859.32  88.416
 39.7576  7935.67  88.2086
 39.9556  7958.52  87.9834
 40.1536  8023.8  88.5479
 40.3516  8091.11  88.9223
 40.5496  8027.64  88.8384
 40.7476  8099.41  89.2337
 40.9456  8064.64  88.7943
 41.1436  8014.29  88.246
 41.3416  7963.05  88.2902
 41.5396  7925.85  87.8983
 41.7376  7945.17  88.2665
 41.9356  7894.64  87.8464
 42.1336  7875.49  87.8852
 42.3316  7843.6  87.9028
 42.5296  7863.64  87.5324
 42.7276  7835.14  87.6162
 42.9256  7914.75  87.9249
 43.1236  7773.01  87.2459
 43.3216  7819.81  87.2561
 43.5196  7676.56  86.5197
 43.7176  7684.05  86.9537
 43.9156  7525.38  85.9527
 44.1136  7709.62  86.5494
 44.3116  7719.6  86.6103
 44.5096  7546.75  85.9525
 44.7076  7584.02  86.0944
 44.9056  7556.31  85.814
 45.1036  7432.14  84.7355
 45.3016  7430.37  85.2241
 45.4996  7435.39  85.1915
 45.6976  7335.77  84.7881
 45.8956  7407.47  85.0268
 46.0936  7422.9  85.1234
 46.2916  7313.79  84.4758
 46.4896  7353.87  84.743
 46.6876  7267.98  84.9492
 46.8856  7161.67  83.5865
 47.0836  7230.12  84.235
 47.2816  7086.46  83.2692
 47.4796  7155.5  83.7797
 47.6776  7101.69  84.3953
 47.8756  7073.14  83.4141
 48.0736  7069.66  83.8511
 48.2716  6878.67  82.5256
 48.4696  7071.33  83.2709
 48.6676  6982.57  83.3217
 48.8656  7013.98  83.2507
 49.0636  7044.43  83.3835
 49.2616  6823.2  82.0858
 49.4596  6987.62  82.6319
 49.6576  6839.02  81.9808
 49.8556  6854.34  82.0866
 50.0536  6840.44  82.4457
 50.2516  6873.05  82.7793
 50.4496  6760.81  81.7545
 50.6476  6814.04  81.7636
 50.8456  6830.46  81.9476
 51.0436  6631.58  81.1743
 51.2416  6507.74  80.092
 51.4396  6550.94  80.7523
 51.6376  6578.69  80.7435
 51.8356  6541.15  80.155
 52.0336  6505.01  80.4427
 52.2316  6570.21  81.1944
 52.4296  6489.46  80.3776
 52.6276  6449.64  80.2492
 52.8256  6588.57  80.6714
 53.0236  6415.7  80.2495
 53.2216  6336.84  79.7884
 53.4196  6336.35  79.708
 53.6176  6279.22  79.8231
 53.8156  6332.38  79.8301
 54.0136  6389.84  80.3559
 54.2116  6304.08  79.4898
 54.4096  6281.68  79.3961
 54.6076  6298.11  79.8484
 54.8056  6174.73  78.85
 55.0036  6227.68  79.5771
 55.2016  6228.44  79.136
 55.3996  6198.85  78.9049
 55.5976  6239.17  79.3581
 55.7956  6230.21  79.1103
 55.9936  6226.22  79.2256
 56.1916  6170.7  78.8858
 56.3896  6211.76  79.1403
 56.5876  6113.06  79.0609
 56.7856  6149.51  78.7822
 56.9836  6130.7  78.4506
 57.1816  6211.73  79.3422
 57.3796  6237.47  79.3008
 57.5776  6157.46  78.7152
 57.7756  6168.64  79.4303
 57.9736  6179.82  79.1743
 58.1716  6180.32  79.4188
 58.3696  6046.82  78.303
 58.5676  6180.62  78.6357
 58.7656  6254.08  79.7775
 58.9636  6260.12  79.8554
 59.1616  6114.51  79.046
 59.3596  6290.37  79.4213
 59.5576  6275.79  79.3867
 59.7556  6225.66  79.4936
 59.9536  6280.26  79.7383
 60.1516  6138.4  79.6882
 60.1996  0.0000000E+00  0.0000000E+00