Folder: echemistpy/docs/examples/opeando_xrd/IS17_D/Data/IS17_D (part 40)

File: 17_Da_f00105.xye
# /beamlines/bl04/projects/cycle2025-II/20250340211-lsimonelli/DATA/IS17_D/17_Da_f00105.xye : mythproc.py merge -s 0.006 -l 0.5 -f /beamlines/bl04/inhouse/ff/FlatField/ff_20Nov2024rod8mm60s_17keV.raw -b True -c true -o xye /beamlines/bl04/projects/cycle2025-II/20250340211-lsimonelli/DATA/IS17_D/17_Da_00105.dat
# IsMon = [6761169, 6761847, 6763831]  IsPos = [-1.5000, -2.4884, -3.4988]
# Wave = 0.4962  CalPath /beamlines/bl04/projects/cycle2025-II/20250340211-lsimonelli/DATA/Align/Si_Pos1_25keV_f00001.cal
# Date = 2025-09-24_22:48:48 Dt = 4.8000  Bin = 0.0060  <imon> = 6762282 +/- 1130 (Min/Max) 6761169 / 6763831
# icurr 250.4914  mocoIn 1.7089E-05  mocoOut 0.8016  i15 7.08125e+06  imon 6.76228e+06  i7 6.3333  iEMpd_timer 4.8000  iEMpd_1 3.4386E-08  iEMpd_2 7.8446E-08  iEMpd_3 1.8068E-08  iEMpd_4 4.8389E-08  iEMhp_timer 4.8000  iEMhp_1 4.8925E-06  iEMhp_2 -2.4658E-08  iEMhp_3 -2.4441E-08  iEMhp_4 -2.1034E-08
#      9776
 1.7416  70513.1  265.641
 1.9396  46800.4  216.688
 2.1376  33583.4  183.558
 2.3356  30395.3  174.261
 2.5336  28380.8  168.98
 2.7316  26981.4  164.872
 2.9296  25915.1  161.751
 3.1276  25168.2  158.944
 3.3256  24422.5  156.232
 3.5236  26218.9  161.676
 3.7216  23751  155.12
 3.9196  23353.4  153.04
 4.1176  23089.3  151.939
 4.3156  24430.1  156.449
 4.5136  26726.1  162.62
 4.7116  27928.1  167.379
 4.9096  27025  164.09
 5.1076  26590.3  163.342
 5.3056  27027.8  164.407
 5.5036  26806  163.625
 5.7016  27308.2  165.121
 5.8996  27727.1  165.593
 6.0976  28515.6  169.38
 6.2956  28931.3  169.941
 6.4936  29658.1  171.251
 6.6916  29873.2  172.869
 6.8896  30694.5  175.095
 7.0876  32015.8  179.472
 7.2856  31823.9  178.068
 7.4836  31925.3  177.688
 7.6816  32818.9  180.69
 7.8796  34456.2  185.126
 8.0776  35802.2  189.697
 8.2756  37686.1  193.218
 8.4736  38131.7  194.168
 8.6716  37473.3  193.127
 8.8696  37296.4  193.127
 9.0676  36606.5  190.709
 9.2656  35285.8  187.921
 9.4636  34929.8  185.379
 9.6616  34119.7  183.985
 9.8596  32922.4  180.211
 10.0576  31032.9  175.625
 10.2556  30054.3  173.269
 10.4536  28575.6  168.561
 10.6516  28167.7  167.552
 10.8496  27161  163.94
 11.0476  26660.4  162.449
 11.2456  25712.5  160.058
 11.4436  25650.6  159.047
 11.6416  27182.5  164.096
 11.8396  24829.8  157.039
 12.0376  24553.7  155.797
 12.2356  24042.2  154.571
 12.4336  23895.7  153.64
 12.6316  23572.2  152.87
 12.8296  23932.3  153.671
 13.0276  24507.9  155.688
 13.2256  24853.7  157.154
 13.4236  24747.6  156.585
 13.6216  24451.6  155.661
 13.8196  24466.7  155.473
 14.0176  24052.3  154.43
 14.2156  23585.5  151.977
 14.4136  22555.9  150.001
 14.6116  22210.7  148.05
 14.8096  21518.3  145.707
 15.0076  20370.6  145.606
 15.2056  19973.8  139.982
 15.4036  19058.5  137.57
 15.6016  18807.6  135.738
 15.7996  18346.4  134.341
 15.9976  17456.6  133.993
 16.1956  16939.2  129.863
 16.3936  16513.4  127.4
 16.5916  16513.1  128.031
 16.7896  16354.6  127.473
 16.9876  16282.8  128.672
 17.1856  16235.5  126.838
 17.3836  15634  124.362
 17.5816  15105.9  122.73
 17.7796  14806.1  121.44
 17.9776  14576.3  121.271
 18.1756  14540.9  119.853
 18.3736  14426.8  119.885
 18.5716  14277.8  119.015
 18.7696  14312.9  118.731
 18.9676  14004.8  117.258
 19.1656  13918.7  117.45
 19.3636  13923.5  117.677
 19.5616  13810.5  117.36
 19.7596  13886.8  117.091
 19.9576  14052.9  117.843
 20.1556  14915.4  121.945
 20.3536  14179.8  118.268
 20.5516  13720  116.782
 20.7496  13093.3  113.943
 20.9476  13138.1  113.976
 21.1456  13277.4  114.907
 21.3436  13008.9  113.693
 21.5416  12829.9  112.914
 21.7396  12719.1  112.258
 21.9376  12732.9  112.083
 22.1356  12715.4  112.288
 22.3336  12578.3  111.825
 22.5316  12833.9  113.04
 22.7296  12766.6  112.11
 22.9276  12544.1  111.796
 23.1256  12700.9  111.966
 23.3236  12792.6  112.928
 23.5216  12595  111.713
 23.7196  12465.8  111.302
 23.9176  12309.6  110.147
 24.1156  12265  110.418
 24.3136  11834.3  109.259
 24.5116  11752.1  108.403
 24.7096  11584.8  107.452
 24.9076  11301.2  106.147
 25.1056  11071.8  105.532
 25.3036  11139.3  105.359
 25.5016  11013.4  104.786
 25.6996  11005.4  104.342
 25.8976  10985.3  104.678
 26.0956  10982  104.682
 26.2936  10954.2  104.194
 26.4916  10973.3  104.16
 26.6896  10615.8  102.752
 26.8876  10571.8  102.392
 27.0856  10648.9  102.811
 27.2836  10303.5  101.027
 27.4816  10248.9  100.698
 27.6796  10234.7  100.999
 27.8776  10123.1  100.304
 28.0756  10134.7  100.649
 28.2736  9985.85  99.4937
 28.4716  9831.41  98.7691
 28.6696  9888.42  98.9011
 28.8676  9732.17  98.4609
 29.0656  9655.28  98.0523
 29.2636  9602.83  97.5822
 29.4616  9657.5  98.0375
 29.6596  9585.44  97.239
 29.8576  9587.79  97.938
 30.0556  9517.27  97.4507
 30.2536  9700.34  98.1795
 30.4516  9485.63  96.7435
 30.6496  9432.85  96.1958
 30.8476  9401.33  96.4784
 31.0456  9309.56  95.9704
 31.2436  9447.5  95.9458
 31.4416  9121.5  94.4563
 31.6396  9175.75  94.7842
 31.8376  9081.6  93.8453
 32.0356  9094.6  94.476
 32.2336  9017.16  93.4681
 32.4316  8972.39  93.634
 32.6296  8941.03  93.3076
 32.8276  9081.7  93.8085
 33.0256  8895.3  92.9215
 33.2236  8911.82  93.1536
 33.4216  9001.04  93.3023
 33.6196  8972.72  93.4543
 33.8176  8930.13  93.3962
 34.0156  8812.29  92.3923
 34.2136  8732.08  92.0114
 34.4116  8641.67  91.6833
 34.6096  8500.26  90.8119
 34.8076  8446.63  90.9263
 35.0056  8537.14  91.1048
 35.2036  8587.56  91.5836
 35.4016  8426.5  90.647
 35.5996  8435.68  90.7291
 35.7976  8436.72  91.0044
 35.9956  8382.78  90.3691
 36.1936  8222.78  89.3678
 36.3916  8256.77  89.7264
 36.5896  8237.54  90.5931
 36.7876  8372  90.7301
 36.9856  8082.7  89.1764
 37.1836  8246.59  89.1744
 37.3816  8308.32  89.8736
 37.5796  8141.1  90.6896
 37.7776  7973.08  88.1363
 37.9756  8027.01  88.3154
 38.1736  8120.86  89.0264
 38.3716  7947.54  88.3438
 38.5696  7906.78  88.4977
 38.7676  7742.59  87.0843
 38.9656  7913.15  87.6756
 39.1636  7852.72  87.5983
 39.3616  7945.47  88.0529
 39.5596  7725.23  87.6632
 39.7576  7879.48  87.9013
 39.9556  7934.57  87.8509
 40.1536  7945.79  88.1102
 40.3516  8001.64  88.4294
 40.5496  7916.09  88.2235
 40.7476  8038.28  88.9041
 40.9456  8139.67  89.206
 41.1436  8017.6  88.256
 41.3416  7922.59  88.0675
 41.5396  7861.85  87.5315
 41.7376  7816  87.5438
 41.9356  7776  87.1769
 42.1336  7760.71  87.2452
 42.3316  7813.32  87.7358
 42.5296  7761.87  86.9599
 42.7276  7896.51  87.9582
 42.9256  7856.55  87.6062
 43.1236  7755.75  87.149
 43.3216  7808.19  87.1901
 43.5196  7556.76  85.8432
 43.7176  7668.91  86.8689
 43.9156  7696.14  86.9297
 44.1136  7477.69  85.2434
 44.3116  7657.13  86.2736
 44.5096  7508.53  85.7401
 44.7076  7480.68  85.5116
 44.9056  7452.64  85.2198
 45.1036  7359.62  84.318
 45.3016  7391.13  84.9968
 45.4996  7506.55  85.5942
 45.6976  7254.87  84.321
 45.8956  7344.62  84.6656
 46.0936  7380.97  84.6361
 46.2916  7339.36  84.6201
 46.4896  7280.04  84.312
 46.6876  7279.99  85.018
 46.8856  7232.47  83.9943
 47.0836  7202.6  84.0765
 47.2816  7110.09  83.4098
 47.4796  7166.71  83.8501
 47.6776  7072.37  84.2355
 47.8756  7003.72  82.9954
 48.0736  7016.09  83.5229
 48.2716  6806.09  82.0908
 48.4696  7091.16  83.3919
 48.6676  6955.45  83.1682
 48.8656  6890.09  82.4922
 49.0636  7048.69  83.3927
 49.2616  6810.99  82.0135
 49.4596  6860.84  81.8817
 49.6576  6851.51  82.0571
 49.8556  6780.21  81.6426
 50.0536  6827.69  82.3674
 50.2516  6871.03  82.7638
 50.4496  6761.58  81.7554
 50.6476  6766.79  81.4798
 50.8456  6674.29  81.0018
 51.0436  6600.62  80.9883
 51.2416  6649.63  80.9658
 51.4396  6321.18  79.3245
 51.6376  6489.8  80.2058
 51.8356  6488.03  79.8344
 52.0336  6368.29  79.59
 52.2316  6554.71  81.096
 52.4296  6486.18  80.3611
 52.6276  6361.06  79.6993
 52.8256  6530.51  80.3024
 53.0236  6406.4  80.1878
 53.2216  6296.69  79.5079
 53.4196  6315.65  79.5767
 53.6176  6169.54  79.1201
 53.8156  6357.62  79.9829
 54.0136  6302.22  79.8101
 54.2116  6218.61  78.9449
 54.4096  6273.4  79.3394
 54.6076  6230.47  79.4189
 54.8056  6285.45  79.5536
 55.0036  6168.25  79.0729
 55.2016  6246.12  79.1711
 55.3996  6238.34  79.1623
 55.5976  6154.13  78.8145
 55.7956  6171.74  78.7454
 55.9936  6179.05  78.9153
 56.1916  6181.43  78.9518
 56.3896  6148.97  78.7375
 56.5876  6043.73  78.607
 56.7856  6118.2  78.5756
 56.9836  6052.49  77.945
 57.1816  6048.95  78.2942
 57.3796  6145.66  78.7157
 57.5776  6103.73  78.3654
 57.7756  6027.06  78.5106
 57.9736  6012.66  78.0971
 58.1716  6132.53  79.1101
 58.3696  6009.11  78.0623
 58.5676  6093.51  78.0868
 58.7656  6021.04  78.2878
 58.9636  6259.26  79.8567
 59.1616  6169.12  79.4
 59.3596  6272.83  79.3164
 59.5576  6161.27  78.6649
 59.7556  6077.91  78.5505
 59.9536  6258.49  79.6059
 60.1516  6116.13  79.5494
 60.1996  0.0000000E+00  0.0000000E+00

File: 17_Da_f00106.xye
# /beamlines/bl04/projects/cycle2025-II/20250340211-lsimonelli/DATA/IS17_D/17_Da_f00106.xye : mythproc.py merge -s 0.006 -l 0.5 -f /beamlines/bl04/inhouse/ff/FlatField/ff_20Nov2024rod8mm60s_17keV.raw -b True -c true -o xye /beamlines/bl04/projects/cycle2025-II/20250340211-lsimonelli/DATA/IS17_D/17_Da_00106.dat
# IsMon = [6772121, 6766497, 6772257]  IsPos = [-1.4999, -2.4884, -3.4988]
# Wave = 0.4962  CalPath /beamlines/bl04/projects/cycle2025-II/20250340211-lsimonelli/DATA/Align/Si_Pos1_25keV_f00001.cal
# Date = 2025-09-24_23:05:21 Dt = 4.8000  Bin = 0.0060  <imon> = 6770292 +/- 2684 (Min/Max) 6766497 / 6772257
# icurr 251.2545  mocoIn 1.7139E-05  mocoOut 0.8043  i15 7.09382e+06  imon 6.77029e+06  i7 5.6667  iEMpd_timer 4.8000  iEMpd_1 3.4508E-08  iEMpd_2 7.7947E-08  iEMpd_3 1.5711E-08  iEMpd_4 4.6805E-08  iEMhp_timer 4.8000  iEMhp_1 4.9092E-06  iEMhp_2 -2.5591E-08  iEMhp_3 -2.5738E-08  iEMhp_4 -2.1242E-08
#      9776
 1.7416  71207.9  266.889
 1.9396  46762  216.562
 2.1376  33890  184.353
 2.3356  30963.5  175.845
 2.5336  28646.8  169.733
 2.7316  27423.7  166.218
 2.9296  25951.9  161.869
 3.1276  25471.3  159.887
 3.3256  24913.3  157.809
 3.5236  26207.5  161.657
 3.7216  23970.9  155.837
 3.9196  23310.3  152.894
 4.1176  23253.3  152.471
 4.3156  24441.9  156.488
 4.5136  26868.7  163.063
 4.7116  27916.2  167.349
 4.9096  27291.4  164.892
 5.1076  26827.6  164.063
 5.3056  27174.3  164.852
 5.5036  26884.4  163.879
 5.7016  27398.7  165.396
 5.8996  27806.6  165.831
 6.0976  28437.7  169.142
 6.2956  29017.8  170.202
 6.4936  29984.9  172.196
 6.6916  30114.4  173.567
 6.8896  31170.2  176.446
 7.0876  32296  180.338
 7.2856  32057.2  178.719
 7.4836  32291.1  178.7
 7.6816  33180.7  181.685
 7.8796  34649.3  185.671
 8.0776  36259.7  190.923
 8.2756  37976.6  193.971
 8.4736  38156.8  194.248
 8.6716  37568.8  193.401
 8.8696  37458.4  193.529
 9.0676  36568.2  190.585
 9.2656  35715  189.038
 9.4636  35115  185.85
 9.6616  34720.2  185.586
 9.8596  33239.4  181.083
 10.0576  31405  176.695
 10.2556  30166.2  173.594
 10.4536  29019.3  169.871
 10.6516  28212.5  167.683
 10.8496  27398.8  164.647
 11.0476  26604.8  162.282
 11.2456  26163.7  161.467
 11.4436  25899.6  159.818
 11.6416  27495  165.034
 11.8396  24994.5  157.55
 12.0376  24836.8  156.692
 12.2356  24255.8  155.262
 12.4336  24202.5  154.624
 12.6316  23961.9  154.114
 12.8296  24106.2  154.226
 13.0276  24792.3  156.592
 13.2256  24856.9  157.159
 13.4236  24907.6  157.088
 13.6216  24616.1  156.175
 13.8196  24790.8  156.5
 14.0176  24276.9  155.161
 14.2156  23894.8  152.966
 14.4136  22605.6  150.161
 14.6116  22142.5  147.823
 14.8096  21760.9  146.523
 15.0076  20471.6  145.959
 15.2056  20321.7  141.211
 15.4036  19278.2  138.368
 15.6016  18951.9  136.271
 15.7996  18356.1  134.38
 15.9976  17798.3  135.28
 16.1956  17033.9  130.209
 16.3936  16731.7  128.223
 16.5916  16533  128.091
 16.7896  16400.4  127.637
 16.9876  16312.8  128.781
 17.1856  16277.2  127.006
 17.3836  15737.9  124.783
 17.5816  15238.8  123.274
 17.7796  14908.3  121.861
 17.9776  14697  121.767
 18.1756  14754.7  120.726
 18.3736  14359.9  119.613
 18.5716  14217.6  118.764
 18.7696  14403.4  119.11
 18.9676  14113.2  117.701
 19.1656  14083.4  118.135
 19.3636  13958.2  117.832
 19.5616  13839  117.483
 19.7596  13923.3  117.24
 19.9576  14058.3  117.868
 20.1556  15023.5  122.392
 20.3536  14359.6  119.006
 20.5516  13715.6  116.768
 20.7496  13461.2  115.614
 20.9476  13173.2  114.124
 21.1456  13287  114.952
 21.3436  13093.1  114.061
 21.5416  12912.6  113.274
 21.7396  12821.3  112.713
 21.9376  12975.6  113.154
 22.1356  12904.1  112.976
 22.3336  12917.4  113.342
 22.5316  12787.5  112.845
 22.7296  12878.2  112.598
 22.9276  12788.1  112.888
 23.1256  12819.8  112.493
 23.3236  12878.3  113.308
 23.5216  12787.2  112.545
 23.7196  12516  111.297
 23.9176  12592.4  111.392
 24.1156  12489.8  111.411
 24.3136  12101.5  110.487
 24.5116  11925.8  109.208
 24.7096  11645.9  107.737
 24.9076  11334.2  106.302
 25.1056  11288.2  106.56
 25.3036  11122.2  105.284
 25.5016  11042.7  104.932
 25.6996  11166.4  105.098
 25.8976  10886.5  104.197
 26.0956  11004.2  104.787
 26.2936  10981.8  104.333
 26.4916  11149.2  104.987
 26.6896  10854.7  103.902
 26.8876  10700.5  103.007
 27.0856  10725.6  103.184
 27.2836  10378.7  101.398
 27.4816  10292.6  100.908
 27.6796  10336.4  101.501
 27.8776  10182.7  100.599
 28.0756  10250.5  101.222
 28.2736  10272.6  100.911
 28.4716  10015.8  99.6899
 28.6696  10060.4  99.7584
 28.8676  9901.95  99.3158
 29.0656  9762.29  98.5891
 29.2636  9799.71  98.5753
 29.4616  9794.27  98.7386
 29.6596  9779.12  98.2273
 29.8576  9578.45  97.9009
 30.0556  9626.31  98.0123
 30.2536  9851.82  98.9538
 30.4516  9474.5  96.6747
 30.6496  9499.47  96.5257
 30.8476  9416.47  96.5476
 31.0456  9466.46  96.7617
 31.2436  9369.69  95.5341
 31.4416  9319.53  95.4784
 31.6396  9167.92  94.7435
 31.8376  9177.12  94.3314
 32.0356  9199.98  95.0213
 32.2336  9048.69  93.6238
 32.4316  8994.01  93.752
 32.6296  9070.95  93.988
 32.8276  9071.01  93.7538
 33.0256  8845.4  92.6608
 33.2236  8913.31  93.1552
 33.4216  9131.06  93.9691
 33.6196  8997.06  93.5871
 33.8176  9003.43  93.7796
 34.0156  8708.01  91.8396
 34.2136  8808.35  92.4079
 34.4116  8703.2  92.0061
 34.6096  8748.15  92.1256
 34.8076  8548.55  91.4818
 35.0056  8582.83  91.3499
 35.2036  8554.8  91.3963
 35.4016  8680.85  92.0016
 35.5996  8496.04  91.0501
 35.7976  8496.16  91.327
 35.9956  8580.46  91.426
 36.1936  8448.9  90.589
 36.3916  8316.38  90.0471
 36.5896  8314.28  91.0074
 36.7876  8311.34  90.4058
 36.9856  8279.86  90.2646
 37.1836  8280.41  89.3678
 37.3816  8280.98  89.7306
 37.5796  8299.63  91.5673
 37.7776  8079.45  88.7127
 37.9756  7995.39  88.1326
 38.1736  8106.16  88.9373
 38.3716  8039.96  88.8477
 38.5696  8040.33  89.2375
 38.7676  7904.11  87.9923
 38.9656  7928.27  87.7611
 39.1636  7896.58  87.8445
 39.3616  7950.83  88.0886
 39.5596  7881.4  88.5368
 39.7576  7836.74  87.6517
 39.9556  7887.4  87.5884
 40.1536  8051.83  88.694
 40.3516  8013.4  88.4941
 40.5496  8028.25  88.8533
 40.7476  8051.45  88.9741
 40.9456  8072.48  88.8423
 41.1436  8029.93  88.3216
 41.3416  8056.16  88.8091
 41.5396  7907.14  87.7943
 41.7376  7972.77  88.4226
 41.9356  7880.6  87.7657
 42.1336  7931.77  88.1972
 42.3316  7804.85  87.6885
 42.5296  7902.49  87.7437
 42.7276  7921.75  88.0971
 42.9256  7953.88  88.1466
 43.1236  7726.36  86.9837
 43.3216  7818.98  87.2483
 43.5196  7711.87  86.7173
 43.7176  7798.37  87.5988
 43.9156  7590.61  86.3419
 44.1136  7610.98  86.0075
 44.3116  7738.77  86.7322
 44.5096  7534.23  85.8973
 44.7076  7514.04  85.7114
 44.9056  7519.2  85.5863
 45.1036  7493.6  85.0679
 45.3016  7475.79  85.4714
 45.4996  7426.79  85.1289
 45.6976  7238.14  84.2159
 45.8956  7425.89  85.1325
 46.0936  7291.96  84.3598
 46.2916  7376.34  84.8338
 46.4896  7307.72  84.4664
 46.6876  7141.64  84.2108
 46.8856  7243.76  84.0634
 47.0836  7231.74  84.2364
 47.2816  7177.44  83.8096
 47.4796  7253.03  84.3464
 47.6776  7128.31  84.5639
 47.8756  6997.69  82.9731
 48.0736  7042.1  83.682
 48.2716  7030.63  83.4332
 48.4696  7078.48  83.3175
 48.6676  6884.61  82.745
 48.8656  7029.2  83.3309
 49.0636  6965.13  82.9043
 49.2616  6864.05  82.3298
 49.4596  7009.98  82.7699
 49.6576  6930.27  82.5193
 49.8556  6809.59  81.819
 50.0536  6777.73  82.0639
 50.2516  6838.55  82.5662
 50.4496  6721.14  81.5204
 50.6476  6806.47  81.7179
 50.8456  6745.91  81.4401
 51.0436  6637.98  81.2259
 51.2416  6685.89  81.1924
 51.4396  6547.59  80.736
 51.6376  6551.01  80.5959
 51.8356  6665.68  80.9313
 52.0336  6494.44  80.3661
 52.2316  6503.61  80.7657
 52.4296  6551.9  80.7632
 52.6276  6588.19  81.101
 52.8256  6556.56  80.456
 53.0236  6416.25  80.2517
 53.2216  6324.15  79.7071
 53.4196  6321.4  79.6137
 53.6176  6324.46  80.1084
 53.8156  6341.33  79.8865
 54.0136  6316.93  79.9009
 54.2116  6291.04  79.4005
 54.4096  6311.86  79.582
 54.6076  6245.93  79.5115
 54.8056  6194.82  78.9777
 55.0036  6297.99  80.0264
 55.2016  6150.4  78.6298
 55.3996  6234.9  79.1438
 55.5976  6228.84  79.2935
 55.7956  6194.23  78.8797
 55.9936  6147.59  78.7225
 56.1916  6293.46  79.6645
 56.3896  6233.43  79.2773
 56.5876  6066.19  78.7491
 56.7856  6240.25  79.3462
 56.9836  6087.79  78.1541
 57.1816  6183.79  79.1527
 57.3796  6233.12  79.2804
 57.5776  6216.53  79.0908
 57.7756  6148.4  79.2983
 57.9736  6117.73  78.7758
 58.1716  6210.37  79.6089
 58.3696  6144.84  78.9537
 58.5676  6174.56  78.6219
 58.7656  6227.98  79.6314
 58.9636  6192.4  79.4377
 59.1616  6071.83  78.7877
 59.3596  6324.81  79.6418
 59.5576  6213.64  78.9961
 59.7556  6317.76  80.0829
 59.9536  6337.07  80.1017
 60.1516  6234.57  80.3135
 60.1996  0.0000000E+00  0.0000000E+00