Folder: echemistpy/docs/examples/opeando_xrd/IS17_D/Data/IS17_D (part 118)

File: 17_Db_f00147.xye
# /beamlines/bl04/projects/cycle2025-II/20250340211-lsimonelli/DATA/IS17_D/17_Db_f00147.xye : mythproc.py merge -s 0.006 -l 0.5 -f /beamlines/bl04/inhouse/ff/FlatField/ff_20Nov2024rod8mm60s_17keV.raw -b True -c true -o xye /beamlines/bl04/projects/cycle2025-II/20250340211-lsimonelli/DATA/IS17_D/17_Db_00147.dat
# IsMon = [6774017, 6777404, 6780048]  IsPos = [-1.4999, -2.4885, -3.4986]
# Wave = 0.4962  CalPath /beamlines/bl04/projects/cycle2025-II/20250340211-lsimonelli/DATA/Align/Si_Pos1_25keV_f00001.cal
# Date = 2025-09-25_10:40:20 Dt = 4.8000  Bin = 0.0060  <imon> = 6777156 +/- 2468 (Min/Max) 6774017 / 6780048
# icurr 252.5768  mocoIn 1.7227E-05  mocoOut 0.8079  i15 7.09887e+06  imon 6.77716e+06  i7 6.6667  iEMpd_timer 4.8000  iEMpd_1 3.4459E-08  iEMpd_2 7.8169E-08  iEMpd_3 1.7723E-08  iEMpd_4 4.6832E-08  iEMhp_timer 4.8000  iEMhp_1 4.9326E-06  iEMhp_2 -2.4887E-08  iEMhp_3 -2.3413E-08  iEMhp_4 -2.1677E-08
#      9776
 1.7416  70907.2  266.422
 1.9396  49291.3  222.415
 2.1376  36000.9  190.079
 2.3356  32135.1  179.206
 2.5336  29936.8  173.577
 2.7316  27416  166.206
 2.9296  26303.6  162.958
 3.1276  25841  161.058
 3.3256  25142.9  158.516
 3.5236  26704.1  163.311
 3.7216  24344.6  157.04
 3.9196  23882.7  154.746
 4.1176  23738.5  154.067
 4.3156  24971.6  158.172
 4.5136  27242.5  164.18
 4.7116  28286.4  168.451
 4.9096  27487.2  165.475
 5.1076  27378  165.746
 5.3056  27784.7  166.564
 5.5036  27235.8  164.941
 5.7016  27917.6  166.948
 5.8996  28537.4  168.009
 6.0976  29200.2  171.39
 6.2956  29317.5  171.058
 6.4936  29970.3  172.143
 6.6916  30115.3  173.557
 6.8896  31039  176.05
 7.0876  31963.5  179.398
 7.2856  31885.6  178.226
 7.4836  32160.6  178.334
 7.6816  33119.4  181.48
 7.8796  33851.7  183.477
 8.0776  35226.6  188.152
 8.2756  36969  191.361
 8.4736  38048.7  193.941
 8.6716  37039.7  191.99
 8.8696  37954.5  194.866
 9.0676  37172.8  192.159
 9.2656  36308.2  190.626
 9.4636  35347.1  186.516
 9.6616  34629.1  185.348
 9.8596  33889  182.828
 10.0576  31853.4  177.924
 10.2556  31019.9  176.038
 10.4536  30222.9  173.358
 10.6516  29448.9  171.333
 10.8496  28329.9  167.437
 11.0476  27430.3  164.723
 11.2456  27022  164.077
 11.4436  27288.9  164.049
 11.6416  26680.9  162.547
 11.8396  25369.2  158.724
 12.0376  24753.3  156.394
 12.2356  24459.3  155.932
 12.4336  24192.1  154.596
 12.6316  24333.3  155.32
 12.8296  24186  154.449
 13.0276  24770.9  156.513
 13.2256  24733.5  156.769
 13.4236  24784.2  156.701
 13.6216  25100.1  157.7
 13.8196  27168  163.552
 14.0176  24128.7  154.681
 14.2156  23644.8  152.153
 14.4136  22570.1  150.046
 14.6116  22390.7  148.636
 14.8096  21547.3  145.779
 15.0076  20447.8  145.939
 15.2056  19847.1  139.524
 15.4036  18684.7  136.207
 15.6016  18346.4  134.055
 15.7996  17798.6  132.304
 15.9976  17798.3  135.244
 16.1956  17542.3  132.129
 16.3936  17063.8  129.477
 16.5916  16622.3  128.454
 16.7896  16780.9  129.114
 16.9876  16483.1  129.439
 17.1856  16258  126.923
 17.3836  15809.7  125.077
 17.5816  15572.2  124.622
 17.7796  15484  124.189
 17.9776  15159.8  123.659
 18.1756  15267.8  122.828
 18.3736  14915  121.882
 18.5716  14761.6  121
 18.7696  14736  120.47
 18.9676  14608  119.736
 19.1656  14309.3  119.091
 19.3636  14348  119.458
 19.5616  14078.9  118.501
 19.7596  14492.4  119.62
 19.9576  14771.5  120.802
 20.1556  14204.1  118.988
 20.3536  13735.4  116.402
 20.5516  13561.8  116.101
 20.7496  13307.5  114.954
 20.9476  13303.3  114.685
 21.1456  13293.8  114.971
 21.3436  13108.5  114.12
 21.5416  12995  113.639
 21.7396  12928.8  113.193
 21.9376  12737.4  112.124
 22.1356  12789.1  112.346
 22.3336  12700.7  112.339
 22.5316  12588.1  111.951
 22.7296  12550.4  111.138
 22.9276  12382.8  111.07
 23.1256  12689.6  111.913
 23.3236  12816.8  113.062
 23.5216  12766.7  112.469
 23.7196  12540.4  111.427
 23.9176  12642.9  111.63
 24.1156  12425.2  111.121
 24.3136  12105.3  110.499
 24.5116  12184.1  110.376
 24.7096  11835.2  108.605
 24.9076  11768.7  108.334
 25.1056  11421.9  106.908
 25.3036  11116.5  105.246
 25.5016  11161.7  105.486
 25.6996  11199.7  105.259
 25.8976  11222.4  105.804
 26.0956  11065.4  105.065
 26.2936  11203.4  105.373
 26.4916  11333  105.838
 26.6896  10952.1  104.36
 26.8876  10881.5  103.87
 27.0856  10750.6  103.261
 27.2836  10526.4  102.265
 27.4816  10230  100.6
 27.6796  10376.6  101.687
 27.8776  10572.5  102.502
 28.0756  10283.1  101.375
 28.2736  10123.1  100.165
 28.4716  10143.4  100.32
 28.6696  9906.28  98.9872
 28.8676  9910.21  99.3621
 29.0656  9780.21  98.6812
 29.2636  9954.88  99.2692
 29.4616  9469.98  97.0688
 29.6596  9574.3  97.1753
 29.8576  9404.74  96.989
 30.0556  9492.57  97.3191
 30.2536  9590.1  97.6119
 30.4516  9664.55  97.6306
 30.6496  9670.49  97.4016
 30.8476  9739.83  98.1914
 31.0456  9722.45  98.082
 31.2436  9625.97  96.8513
 31.4416  9368.2  95.716
 31.6396  9657.86  97.2401
 31.8376  9547.84  96.1946
 32.0356  9401.6  96.0361
 32.2336  9383.79  95.3545
 32.4316  9164.61  94.6212
 32.6296  9002.03  93.5491
 32.8276  9129.66  94.0672
 33.0256  8980.47  93.3601
 33.2236  9072.94  93.9824
 33.4216  8989.5  93.2411
 33.6196  8945.99  93.2964
 33.8176  8952.4  93.5153
 34.0156  8805.75  92.3633
 34.2136  8860.12  92.6689
 34.4116  8612.17  91.5257
 34.6096  8715.21  91.9504
 34.8076  8517.84  91.3214
 35.0056  8618.79  91.5186
 35.2036  8904.82  93.2698
 35.4016  8526.77  91.1726
 35.5996  8523.65  91.1992
 35.7976  8423.13  90.9281
 35.9956  8605.86  91.557
 36.1936  8558.55  91.1448
 36.3916  8445.71  90.7531
 36.5896  8442.51  92.207
 36.7876  8344.81  90.5715
 36.9856  8094.18  89.2238
 37.1836  8155.21  88.6726
 37.3816  8106.3  88.7664
 37.5796  8222.82  91.1519
 37.7776  8210.62  89.4411
 37.9756  8203.19  89.2801
 38.1736  8220.21  89.566
 38.3716  8148.65  89.4425
 38.5696  7993.05  88.9586
 38.7676  7932.24  88.1517
 38.9656  8023.23  88.2834
 39.1636  8080.56  88.838
 39.3616  8045.57  88.6089
 39.5596  7875.02  88.4936
 39.7576  7949.82  88.2966
 39.9556  7928.38  87.8157
 40.1536  8080.38  88.8554
 40.3516  8029.38  88.6599
 40.5496  8115.22  89.0941
 40.7476  8091.43  89.1968
 40.9456  8141.5  89.2079
 41.1436  8125.85  88.851
 41.3416  7944.01  88.1844
 41.5396  8074.62  88.7124
 41.7376  8023.31  88.6934
 41.9356  7970.24  88.2555
 42.1336  8218.26  89.7691
 42.3316  7976.21  88.6373
 42.5296  8011.86  88.3416
 42.7276  7902.12  87.9804
 42.9256  7915.9  87.9345
 43.1236  7859.09  87.7233
 43.3216  7882.44  87.6858
 43.5196  7819.5  87.317
 43.7176  7932.74  88.3417
 43.9156  7531.4  85.989
 44.1136  7639.27  86.1541
 44.3116  7745.71  86.7599
 44.5096  7583.37  86.1538
 44.7076  7625.79  86.328
 44.9056  7874.66  87.602
 45.1036  7754.39  86.5521
 45.3016  7721.96  86.8616
 45.4996  7687.34  86.6181
 45.6976  7494.41  85.6976
 45.8956  7666.89  86.4999
 46.0936  7694.59  86.6667
 46.2916  7681.23  86.5703
 46.4896  7585.91  86.0526
 46.6876  7553.28  86.5997
 46.8856  7504.94  85.677
 47.0836  7550.37  86.0737
 47.2816  7477.76  85.5381
 47.4796  7557.49  86.1049
 47.6776  7453.84  86.4751
 47.8756  7490.59  85.8431
 48.0736  7626.87  87.068
 48.2716  7364.54  85.3883
 48.4696  7534.86  85.9443
 48.6676  7497.67  86.3496
 48.8656  7470.49  85.904
 49.0636  7534.95  86.2196
 49.2616  7400.55  85.4865
 49.4596  7388.36  84.9746
 49.6576  7337.73  84.9115
 49.8556  7310.27  84.7734
 50.0536  7437.64  85.9708
 50.2516  7345.33  85.5401
 50.4496  7375.32  85.386
 50.6476  7478.54  85.654
 50.8456  7286.37  84.6259
 51.0436  7211.31  84.6473
 51.2416  7158.54  83.9981
 51.4396  7086.18  83.9885
 51.6376  7055.01  83.6249
 51.8356  7033.61  83.1156
 52.0336  7079.68  83.9146
 52.2316  7093.24  84.3523
 52.4296  7002.36  83.5094
 52.6276  6958.56  83.3488
 52.8256  7166.2  84.1467
 53.0236  7092.61  84.3734
 53.2216  7050.46  84.1588
 53.4196  7014.9  83.8504
 53.6176  6996.13  84.2475
 53.8156  7022.31  84.07
 54.0136  6674.46  82.1224
 54.2116  6923.3  83.2706
 54.4096  6634.17  81.5815
 54.6076  6652.51  82.0442
 54.8056  6443.75  80.5223
 55.0036  6586.09  81.8087
 55.2016  6674.5  81.8799
 55.3996  6462.23  80.5451
 55.5976  6585.79  81.5044
 55.7956  6541.13  81.0379
 55.9936  6584  81.4408
 56.1916  6476.89  80.8148
 56.3896  6303.53  79.694
 56.5876  6328.71  80.4098
 56.7856  6369.54  80.1756
 56.9836  6428.69  80.3138
 57.1816  6536.77  81.3495
 57.3796  6319.16  79.7715
 57.5776  6360.16  79.9387
 57.7756  6200.84  79.6141
 57.9736  6245.9  79.567
 58.1716  6158.86  79.2678
 58.3696  6064.41  78.4216
 58.5676  6077.74  77.97
 58.7656  5975.09  77.9852
 58.9636  6106.01  78.8639
 59.1616  6188.82  79.5287
 59.3596  6111.95  78.2814
 59.5576  5970.01  77.4266
 59.7556  6009.77  78.1012
 59.9536  5956.23  77.6521
 60.1516  5870.55  77.9283
 60.1996  0.0000000E+00  0.0000000E+00

File: 17_Db_f00148.xye
# /beamlines/bl04/projects/cycle2025-II/20250340211-lsimonelli/DATA/IS17_D/17_Db_f00148.xye : mythproc.py merge -s 0.006 -l 0.5 -f /beamlines/bl04/inhouse/ff/FlatField/ff_20Nov2024rod8mm60s_17keV.raw -b True -c true -o xye /beamlines/bl04/projects/cycle2025-II/20250340211-lsimonelli/DATA/IS17_D/17_Db_00148.dat
# IsMon = [6735694, 6741132, 6767114]  IsPos = [-1.4999, -2.4884, -3.4988]
# Wave = 0.4962  CalPath /beamlines/bl04/projects/cycle2025-II/20250340211-lsimonelli/DATA/Align/Si_Pos1_25keV_f00001.cal
# Date = 2025-09-25_10:56:50 Dt = 4.8000  Bin = 0.0060  <imon> = 6747980 +/- 13711 (Min/Max) 6735694 / 6767114
# icurr 249.2945  mocoIn 1.7005E-05  mocoOut 0.7974  i15 7.07109e+06  imon 6.74798e+06  i7 6.3333  iEMpd_timer 4.8000  iEMpd_1 3.3134E-08  iEMpd_2 7.7520E-08  iEMpd_3 1.7742E-08  iEMpd_4 4.6561E-08  iEMhp_timer 4.8000  iEMhp_1 4.8800E-06  iEMhp_2 -2.5458E-08  iEMhp_3 -2.4267E-08  iEMhp_4 -2.1124E-08
#      9776
 1.7416  70044.4  264.976
 1.9396  48418.8  220.592
 2.1376  35542.4  188.992
 2.3356  31659.2  177.995
 2.5336  29728.6  173.09
 2.7316  27097.1  165.337
 2.9296  25922  161.874
 3.1276  25554.9  160.269
 3.3256  24880  157.776
 3.5236  26287.7  161.983
 3.7216  24163.6  156.453
 3.9196  23689.3  154.11
 4.1176  23592.6  153.614
 4.3156  24460.2  156.501
 4.5136  26949.6  163.313
 4.7116  27877.6  167.224
 4.9096  27294.8  164.9
 5.1076  26827.5  164.101
 5.3056  27269.4  165.08
 5.5036  26843.9  163.766
 5.7016  27680  166.238
 5.8996  28137.9  166.832
 6.0976  28819.1  170.3
 6.2956  28985.8  170.072
 6.4936  29614.7  171.121
 6.6916  29973.8  173.155
 6.8896  30642.7  174.912
 7.0876  31663.3  178.561
 7.2856  31506.6  177.167
 7.4836  31848.7  177.467
 7.6816  32894.3  180.883
 7.8796  33673.5  182.936
 8.0776  35155.8  187.9
 8.2756  36742.3  190.647
 8.4736  37493.6  192.46
 8.6716  36577.5  190.776
 8.8696  37644.1  194.021
 9.0676  36900.6  191.423
 9.2656  35924.1  189.567
 9.4636  34664.5  184.602
 9.6616  34165.2  183.997
 9.8596  33432.4  181.694
 10.0576  31477.3  176.979
 10.2556  30762.3  175.41
 10.4536  29682.5  171.9
 10.6516  29201.1  170.716
 10.8496  27950.2  166.297
 11.0476  27311  164.414
 11.2456  26448.3  162.354
 11.4436  26927.1  162.956
 11.6416  26343.3  161.527
 11.8396  25049  157.75
 12.0376  24490.7  155.534
 12.2356  24044.7  154.598
 12.4336  23983.5  153.931
 12.6316  24058  154.462
 12.8296  24070.7  154.083
 13.0276  24394.7  155.3
 13.2256  24648.2  156.502
 13.4236  24400.5  155.483
 13.6216  24749.9  156.624
 13.8196  26729.1  162.205
 14.0176  23877.5  153.853
 14.2156  23400.3  151.373
 14.4136  22240.7  148.945
 14.6116  22138.2  147.799
 14.8096  21302.7  144.915
 15.0076  20263.2  145.317
 15.2056  19443  138.048
 15.4036  18507.6  135.513
 15.6016  18118.1  133.172
 15.7996  17606.5  131.501
 15.9976  17308.7  133.345
 16.1956  16902  129.672
 16.3936  16975.6  129.127
 16.5916  16530.6  128.063
 16.7896  16387.8  127.565
 16.9876  16347.7  128.945
 17.1856  16164  126.626
 17.3836  15592.4  124.289
 17.5816  15339.8  123.759
 17.7796  15183.6  123.055
 17.9776  14846.1  122.359
 18.1756  15211.4  122.601
 18.3736  14852.4  121.646
 18.5716  14654  120.57
 18.7696  14498  119.489
 18.9676  14413.6  118.964
 19.1656  14085.8  118.125
 19.3636  14019.6  118.098
 19.5616  13908.3  117.782
 19.7596  14217  118.5
 19.9576  14559  119.943
 20.1556  14048.1  118.322
 20.3536  13687.8  116.194
 20.5516  13450.1  115.626
 20.7496  13169.6  114.354
 20.9476  13189.9  114.223
 21.1456  13144.6  114.311
 21.3436  12946.5  113.416
 21.5416  12781.2  112.702
 21.7396  12746.4  112.391
 21.9376  12668.9  111.783
 22.1356  12717.7  112.171
 22.3336  12401.9  111.027
 22.5316  12297.1  110.611
 22.7296  12371.4  110.314
 22.9276  12174.9  110.097
 23.1256  12578  111.347
 23.3236  12600.7  112.077
 23.5216  12663.9  111.996
 23.7196  12446.9  110.984
 23.9176  12590.3  111.408
 24.1156  12366.7  110.842
 24.3136  12033.8  110.242
 24.5116  11978.4  109.511
 24.7096  11785.9  108.439
 24.9076  11580.6  107.53
 25.1056  11282.5  106.587
 25.3036  11221.2  105.756
 25.5016  11065.9  105.041
 25.6996  11194.7  105.233
 25.8976  11182.1  105.633
 26.0956  10906  104.274
 26.2936  10904.6  103.978
 26.4916  11115.2  104.812
 26.6896  10815.1  103.697
 26.8876  10683.1  102.941
 27.0856  10569.4  102.394
 27.2836  10407.5  101.536
 27.4816  10298.9  100.944
 27.6796  10239.5  101.015
 27.8776  10469.1  102.015
 28.0756  10081.5  100.362
 28.2736  10134.7  100.225
 28.4716  9952.17  99.3718
 28.6696  9944.97  99.1772
 28.8676  9793.16  98.7742
 29.0656  9683.58  98.1945
 29.2636  9791.57  98.5593
 29.4616  9460.86  96.9938
 29.6596  9481.88  96.6696
 29.8576  9368.77  96.7726
 30.0556  9433.7  96.951
 30.2536  9483.59  97.0353
 30.4516  9664.43  97.6214
 30.6496  9518.83  96.6129
 30.8476  9554.93  97.2345
 31.0456  9468.17  96.7879
 31.2436  9475.94  96.0932
 31.4416  9305.15  95.4645
 31.6396  9405.61  96.0263
 31.8376  9470.65  95.8818
 32.0356  9222.51  95.1793
 32.2336  9340.02  95.1909
 32.4316  8939  93.4689
 32.6296  8964.74  93.4328
 32.8276  9003.27  93.4038
 33.0256  8926.25  93.0717
 33.2236  8996.91  93.6089
 33.4216  8879.97  92.6341
 33.6196  8884.02  92.9937
 33.8176  8795.78  92.6796
 34.0156  8624.5  91.4102
 34.2136  8920.77  93.0012
 34.4116  8497.21  90.9054
 34.6096  8659.2  91.6603
 34.8076  8484.15  91.1432
 35.0056  8532.88  91.081
 35.2036  8668.62  92.0431
 35.4016  8555.66  91.32
 35.5996  8454.19  90.8248
 35.7976  8321.07  90.3788
 35.9956  8575.32  91.3945
 36.1936  8475.44  90.7151
 36.3916  8298.22  89.958
 36.5896  8293.8  90.941
 36.7876  7958.04  88.4198
 36.9856  7920.92  88.2376
 37.1836  8125.06  88.4792
 37.3816  8096.85  88.6604
 37.5796  8092.59  90.4296
 37.7776  8195.55  89.3706
 37.9756  8154.33  89.0298
 38.1736  8165.72  89.2524
 38.3716  8148.1  89.4314
 38.5696  7885.42  88.3709
 38.7676  7902.3  88.0333
 38.9656  8007.71  88.2499
 39.1636  7979.38  88.3671
 39.3616  7953.96  88.1532
 39.5596  7874.37  88.4834
 39.7576  7799.96  87.4616
 39.9556  7942.94  87.8999
 40.1536  7994.61  88.3703
 40.3516  7974.35  88.2797
 40.5496  7980.61  88.5789
 40.7476  8047.99  88.9419
 40.9456  8162.04  89.3299
 41.1436  8092.98  88.6905
 41.3416  7867.83  87.7488
 41.5396  7912.36  87.8136
 41.7376  7885.94  87.9379
 41.9356  7855.57  87.622
 42.1336  8026.52  88.7279
 42.3316  7790.37  87.5859
 42.5296  7779.26  87.059
 42.7276  7865.22  87.7804
 42.9256  7861.15  87.6288
 43.1236  7740.25  87.05
 43.3216  7837.24  87.3391
 43.5196  7750.77  86.9466
 43.7176  7784.38  87.5123
 43.9156  7486.7  85.7044
 44.1136  7597.65  85.89
 44.3116  7674.98  86.3114
 44.5096  7610.64  86.2874
 44.7076  7614.36  86.2349
 44.9056  7731.47  86.781
 45.1036  7718.97  86.3325
 45.3016  7676.81  86.5995
 45.4996  7522.2  85.6624
 45.6976  7516.05  85.7737
 45.8956  7556.08  85.9298
 46.0936  7641.34  86.4259
 46.2916  7562.68  85.9507
 46.4896  7602.83  86.2044
 46.6876  7437.86  85.9863
 46.8856  7454.53  85.2772
 47.0836  7500.94  85.8175
 47.2816  7354.69  84.8444
 47.4796  7455.56  85.5272
 47.6776  7329.93  85.7561
 47.8756  7390.36  85.2654
 48.0736  7387.15  85.6991
 48.2716  7264.57  84.7923
 48.4696  7459.37  85.5323
 48.6676  7356.16  85.5236
 48.8656  7411.76  85.5605
 49.0636  7353.51  85.2021
 49.2616  7249.36  84.5974
 49.4596  7413.4  85.1099
 49.6576  7309.39  84.7489
 49.8556  7331.06  84.8943
 50.0536  7379.49  85.6336
 50.2516  7246.15  84.9827
 50.4496  7219.25  84.4941
 50.6476  7304.07  84.6495
 50.8456  7373.45  85.1338
 51.0436  7261.31  84.9114
 51.2416  7011.55  83.0827
 51.4396  6862.73  82.6265
 51.6376  7115.12  83.9703
 51.8356  7040.38  83.1393
 52.0336  6889.39  82.7526
 52.2316  6925.81  83.3306
 52.4296  6972.56  83.2827
 52.6276  6905.27  82.9894
 52.8256  7014.27  83.2286
 53.0236  6988.02  83.7923
 53.2216  7024.15  84.0544
 53.4196  6915.47  83.3123
 53.6176  6972.99  84.1638
 53.8156  6872.55  83.2142
 54.0136  6611.17  81.7103
 54.2116  6880.73  83.032
 54.4096  6630.14  81.575
 54.6076  6532.47  81.2958
 54.8056  6520.46  81.0004
 55.0036  6529.19  81.4641
 55.2016  6611.73  81.4999
 55.3996  6409.28  80.2045
 55.5976  6465.83  80.7744
 55.7956  6477.48  80.655
 55.9936  6602  81.5739
 56.1916  6385.26  80.2402
 56.3896  6332.18  79.8722
 56.5876  6245.62  79.8967
 56.7856  6308.41  79.7863
 56.9836  6387.87  80.0785
 57.1816  6387.73  80.4412
 57.3796  6249.85  79.371
 57.5776  6332.27  79.7819
 57.7756  6248.68  79.9227
 57.9736  6136.22  78.8683
 58.1716  6122.11  79.0178
 58.3696  5977.78  77.8551
 58.5676  5998.31  77.4629
 58.7656  6044.98  78.4115
 58.9636  5887.63  77.4105
 59.1616  5938.36  77.8796
 59.3596  6029.8  77.6631
 59.5576  5916.96  76.9892
 59.7556  5960.96  77.6899
 59.9536  5960.63  77.5875
 60.1516  5822.73  77.5169
 60.1996  0.0000000E+00  0.0000000E+00