Folder: echemistpy/docs/examples/opeando_xrd/IS17_D/Data/IS17_D (part 100)

File: 17_Db_f00102.xye
# /beamlines/bl04/projects/cycle2025-II/20250340211-lsimonelli/DATA/IS17_D/17_Db_f00102.xye : mythproc.py merge -s 0.006 -l 0.5 -f /beamlines/bl04/inhouse/ff/FlatField/ff_20Nov2024rod8mm60s_17keV.raw -b True -c true -o xye /beamlines/bl04/projects/cycle2025-II/20250340211-lsimonelli/DATA/IS17_D/17_Db_00102.dat
# IsMon = [6758153, 6760584, 6761393]  IsPos = [-1.4999, -2.4884, -3.4989]
# Wave = 0.4962  CalPath /beamlines/bl04/projects/cycle2025-II/20250340211-lsimonelli/DATA/Align/Si_Pos1_25keV_f00001.cal
# Date = 2025-09-24_22:07:11 Dt = 4.8000  Bin = 0.0060  <imon> = 6760043 +/- 1377 (Min/Max) 6758153 / 6761393
# icurr 250.8030  mocoIn 1.7100E-05  mocoOut 0.8018  i15 7.084e+06  imon 6.76004e+06  i7 4.6667  iEMpd_timer 4.8000  iEMpd_1 3.2633E-08  iEMpd_2 7.8178E-08  iEMpd_3 1.6181E-08  iEMpd_4 4.8067E-08  iEMhp_timer 4.8000  iEMhp_1 4.8985E-06  iEMhp_2 -2.4482E-08  iEMhp_3 -2.3375E-08  iEMhp_4 -2.1354E-08
#      9776
 1.7416  71060.1  266.685
 1.9396  49263.5  222.333
 2.1376  36280.7  190.798
 2.3356  32784.1  180.99
 2.5336  30398.7  174.895
 2.7316  27990.9  167.928
 2.9296  26986.8  165.055
 3.1276  26363.8  162.67
 3.3256  25271.3  158.909
 3.5236  26778.6  163.378
 3.7216  24618.3  157.918
 3.9196  24000.5  155.114
 4.1176  23917.3  154.64
 4.3156  24602.5  157.005
 4.5136  27206.4  164.071
 4.7116  28120.2  167.949
 4.9096  27268.2  164.818
 5.1076  27077.2  164.825
 5.3056  27353.3  165.379
 5.5036  26859.6  163.787
 5.7016  27296.8  165.083
 5.8996  27719.7  165.585
 6.0976  28541.4  169.431
 6.2956  28685  169.206
 6.4936  29324.4  170.273
 6.6916  29618  172.118
 6.8896  30657.4  174.946
 7.0876  31458.6  177.981
 7.2856  31346.6  176.704
 7.4836  31735.1  177.146
 7.6816  32378.2  179.44
 7.8796  33281.8  181.936
 8.0776  34605.1  186.493
 8.2756  36280  189.583
 8.4736  36845.4  190.862
 8.6716  36148  189.668
 8.8696  37061.4  192.563
 9.0676  36142.5  189.482
 9.2656  34757.4  186.509
 9.4636  33950.2  182.8
 9.6616  33454.6  182.192
 9.8596  32695  179.564
 10.0576  30771.6  174.854
 10.2556  29742  172.367
 10.4536  28543.1  168.454
 10.6516  27965.9  166.952
 10.8496  26821.7  162.921
 11.0476  25987.5  160.381
 11.2456  25340.6  158.895
 11.4436  25313.9  157.993
 11.6416  26778.9  162.856
 11.8396  24514  156.022
 12.0376  23930  153.789
 12.2356  23641.9  153.275
 12.4336  23570  152.599
 12.6316  23517.3  152.69
 12.8296  23450.2  152.088
 13.0276  23705.6  153.11
 13.2256  24095.8  154.735
 13.4236  24109.1  154.551
 13.6216  24417.9  155.524
 13.8196  26646.6  161.935
 14.0176  23351.7  152.078
 14.2156  23224.3  150.783
 14.4136  22007.5  148.166
 14.6116  21842.1  146.808
 14.8096  20895.6  143.562
 15.0076  19984.6  144.263
 15.2056  19117.9  136.942
 15.4036  18088.5  134.022
 15.6016  17769.9  131.938
 15.7996  17506.5  131.226
 15.9976  17324.9  134.034
 16.1956  16819.7  129.387
 16.3936  16485.4  127.269
 16.5916  16187.2  126.763
 16.7896  16042.4  126.251
 16.9876  16099.4  127.921
 17.1856  15902.6  125.523
 17.3836  15535.4  123.98
 17.5816  15038.1  122.452
 17.7796  14668.5  120.866
 17.9776  14500.3  120.935
 18.1756  14332.6  119.007
 18.3736  14062.8  118.352
 18.5716  13905.9  117.445
 18.7696  13945.3  117.185
 18.9676  13838.2  116.538
 19.1656  13601.4  116.108
 19.3636  13679  116.638
 19.5616  13439.1  115.78
 19.7596  13619.3  115.963
 19.9576  13756  116.582
 20.1556  14574  120.533
 20.3536  13693.2  116.226
 20.5516  13373.6  115.294
 20.7496  13019.7  113.689
 20.9476  12945.4  113.14
 21.1456  12861.4  113.084
 21.3436  12734.1  112.483
 21.5416  12751.1  112.567
 21.7396  12452.4  111.081
 21.9376  12473.3  110.952
 22.1356  12367.3  110.599
 22.3336  12113.1  109.735
 22.5316  12342.8  110.86
 22.7296  12231.4  109.73
 22.9276  12019.2  109.431
 23.1256  12177.1  109.635
 23.3236  12587.4  112.045
 23.5216  12423.4  110.945
 23.7196  12280.8  110.265
 23.9176  12285.1  110.042
 24.1156  12082.5  109.586
 24.3136  11701.8  108.642
 24.5116  11840.6  108.807
 24.7096  11395.5  106.556
 24.9076  11360.5  106.432
 25.1056  11051  105.429
 25.3036  10873.4  104.085
 25.5016  10878.4  104.149
 25.6996  10817.3  103.443
 25.8976  10866.2  104.106
 26.0956  10564.3  102.661
 26.2936  10653.8  102.756
 26.4916  10963.4  104.084
 26.6896  10689.4  103.099
 26.8876  10416.9  101.634
 27.0856  10330.9  101.269
 27.2836  10142.7  100.234
 27.4816  10067.4  99.7922
 27.6796  9994.66  99.8009
 27.8776  10257.5  100.959
 28.0756  9881.78  99.3762
 28.2736  9852.48  98.8172
 28.4716  9738.13  98.2939
 28.6696  9698.58  97.9461
 28.8676  9705.74  98.3308
 29.0656  9539.05  97.4524
 29.2636  9612.71  97.6238
 29.4616  9217.71  95.7734
 29.6596  9226.71  95.3965
 29.8576  9178.47  95.8218
 30.0556  9129.17  95.4461
 30.2536  9256.96  95.9022
 30.4516  9293.33  95.7459
 30.6496  9314.1  95.5855
 30.8476  9286.37  95.8834
 31.0456  9330.08  96.0691
 31.2436  9397.77  95.6888
 31.4416  9156.4  94.6365
 31.6396  9258.85  95.2009
 31.8376  9120.1  94.0097
 32.0356  9199.46  94.9898
 32.2336  9107.08  93.9309
 32.4316  8741.95  92.416
 32.6296  8742.34  92.251
 32.8276  8859.17  92.6564
 33.0256  8840.66  92.6311
 33.2236  8894.35  93.0551
 33.4216  8642.13  91.4066
 33.6196  8752.74  92.29
 33.8176  8768.05  92.5344
 34.0156  8515.01  90.8284
 34.2136  8716.1  91.9169
 34.4116  8388.8  90.3324
 34.6096  8568.51  91.1761
 34.8076  8459.47  91.0107
 35.0056  8446.76  90.6129
 35.2036  8559.17  91.4395
 35.4016  8383.02  90.4015
 35.5996  8386.36  90.4612
 35.7976  8301.49  90.2767
 35.9956  8348.88  90.1834
 36.1936  8424.29  90.4363
 36.3916  8262.38  89.7632
 36.5896  8215.56  90.4869
 36.7876  8051.18  88.9647
 36.9856  7909.35  88.2041
 37.1836  7876.5  87.1479
 37.3816  7840.52  87.3053
 37.5796  7858.71  89.1063
 37.7776  8085.65  88.7593
 37.9756  8016.84  88.2664
 38.1736  8002.15  88.3682
 38.3716  7851.25  87.8028
 38.5696  7930.2  88.6078
 38.7676  7760.33  87.1833
 38.9656  7710.37  86.5382
 39.1636  7956.18  88.1654
 39.3616  7798.18  87.2326
 39.5596  7661.51  87.2811
 39.7576  7631.36  86.5111
 39.9556  7823.4  87.2357
 40.1536  7886.38  87.7769
 40.3516  7795.54  87.2882
 40.5496  7791.62  87.5202
 40.7476  7927.92  88.2818
 40.9456  7943.7  88.1269
 41.1436  7994.37  88.1237
 41.3416  7714.56  86.9035
 41.5396  7782.04  87.0885
 41.7376  7712.76  86.9557
 41.9356  7720.88  86.8617
 42.1336  7910.43  88.0701
 42.3316  7783.94  87.5584
 42.5296  7725.36  86.7558
 42.7276  7801.25  87.4171
 42.9256  7702.14  86.7405
 43.1236  7584.06  86.1719
 43.3216  7740.47  86.8096
 43.5196  7586.68  85.9982
 43.7176  7713.67  87.1125
 43.9156  7468.29  85.6313
 44.1136  7356.75  84.5463
 44.3116  7489.44  85.3147
 44.5096  7368.84  84.9381
 44.7076  7533.83  85.8127
 44.9056  7648.15  86.335
 45.1036  7505.73  85.1524
 45.3016  7529.57  85.7909
 45.4996  7496.25  85.5398
 45.6976  7319.34  84.6933
 45.8956  7398.06  84.9658
 46.0936  7586.52  86.0525
 46.2916  7505.38  85.5647
 46.4896  7515.4  85.6499
 46.6876  7372.67  85.5407
 46.8856  7282.7  84.2814
 47.0836  7303.11  84.6559
 47.2816  7207.41  83.977
 47.4796  7316.74  84.7144
 47.6776  7346.35  85.8362
 47.8756  7307.04  84.7842
 48.0736  7260.95  84.9685
 48.2716  7166.03  84.23
 48.4696  7407.39  85.2226
 48.6676  7287.32  85.1227
 48.8656  7289.15  84.8624
 49.0636  7334.39  85.0693
 49.2616  7158.88  84.0852
 49.4596  7236.98  84.0933
 49.6576  7280.3  84.5863
 49.8556  7220.53  84.2517
 50.0536  7130.9  84.1785
 50.2516  7242.63  84.963
 50.4496  7191.77  84.3175
 50.6476  7203.21  84.0611
 50.8456  7157.16  83.8791
 51.0436  6966.09  83.1982
 51.2416  6893.66  82.4385
 51.4396  6701.96  81.6801
 51.6376  6984.68  83.2041
 51.8356  6896.05  82.3017
 52.0336  6918.13  82.955
 52.2316  6907.56  83.2504
 52.4296  6838.8  82.5328
 52.6276  6826.85  82.5664
 52.8256  7101.25  83.7648
 53.0236  6892.66  83.1632
 53.2216  6892.46  83.2087
 53.4196  6896.73  83.1383
 53.6176  6908  83.7091
 53.8156  6713.17  82.1971
 54.0136  6594.01  81.6142
 54.2116  6737.39  82.1425
 54.4096  6577.45  81.2388
 54.6076  6479.24  80.9654
 54.8056  6507.45  80.9137
 55.0036  6489.13  81.2057
 55.2016  6495.28  80.8109
 55.3996  6341.38  79.7798
 55.5976  6362.13  80.1133
 55.7956  6275.13  79.3862
 55.9936  6430.18  80.4946
 56.1916  6360.81  80.0856
 56.3896  6184.75  78.9464
 56.5876  6154.93  79.3041
 56.7856  6274.92  79.5662
 56.9836  6343.05  79.7744
 57.1816  6300.24  79.7741
 57.3796  6109.44  78.4644
 57.5776  6179.22  78.8118
 57.7756  6060.13  78.7018
 57.9736  6110.04  78.6898
 58.1716  5998.52  78.2357
 58.3696  5901.37  77.3568
 58.5676  5981.59  77.3543
 58.7656  5917.3  77.6106
 58.9636  6000.83  78.1816
 59.1616  5854.04  77.3551
 59.3596  5864.81  76.6941
 59.5576  5912.65  77.0625
 59.7556  5733.47  76.2934
 59.9536  5921.06  77.4313
 60.1516  5838.07  77.7212
 60.1996  5764.35  80.3021

File: 17_Db_f00103.xye
# /beamlines/bl04/projects/cycle2025-II/20250340211-lsimonelli/DATA/IS17_D/17_Db_f00103.xye : mythproc.py merge -s 0.006 -l 0.5 -f /beamlines/bl04/inhouse/ff/FlatField/ff_20Nov2024rod8mm60s_17keV.raw -b True -c true -o xye /beamlines/bl04/projects/cycle2025-II/20250340211-lsimonelli/DATA/IS17_D/17_Db_00103.dat
# IsMon = [6767270, 6773934, 6771926]  IsPos = [-1.4999, -2.4885, -3.4988]
# Wave = 0.4962  CalPath /beamlines/bl04/projects/cycle2025-II/20250340211-lsimonelli/DATA/Align/Si_Pos1_25keV_f00001.cal
# Date = 2025-09-24_22:23:56 Dt = 4.8000  Bin = 0.0060  <imon> = 6771043 +/- 2791 (Min/Max) 6767270 / 6773934
# icurr 251.6904  mocoIn 1.7171E-05  mocoOut 0.8058  i15 7.09914e+06  imon 6.77104e+06  i7 3.6667  iEMpd_timer 4.8000  iEMpd_1 3.3158E-08  iEMpd_2 7.8388E-08  iEMpd_3 1.7087E-08  iEMpd_4 4.8286E-08  iEMhp_timer 4.8000  iEMhp_1 4.9178E-06  iEMhp_2 -2.5569E-08  iEMhp_3 -2.4414E-08  iEMhp_4 -2.1047E-08
#      9776
 1.7416  71221.8  267.025
 1.9396  49509.8  222.924
 2.1376  36753.1  192.062
 2.3356  32698  180.777
 2.5336  30838.8  176.181
 2.7316  28545.2  169.581
 2.9296  27228.7  165.791
 3.1276  26700.6  163.711
 3.3256  25776.1  160.478
 3.5236  26997  164.199
 3.7216  24780.8  158.44
 3.9196  24250.4  155.937
 4.1176  23976.3  154.833
 4.3156  24833.3  157.743
 4.5136  27058.7  163.616
 4.7116  28124.3  167.964
 4.9096  27583.8  165.767
 5.1076  27209.2  165.237
 5.3056  27179.6  164.85
 5.5036  26909.4  164.031
 5.7016  27388.5  165.362
 5.8996  28104.4  166.73
 6.0976  28676.7  169.846
 6.2956  28815  169.582
 6.4936  29537.3  170.902
 6.6916  30135.7  173.616
 6.8896  30801.4  175.361
 7.0876  31769.9  178.854
 7.2856  31592.4  177.404
 7.4836  31785.3  177.282
 7.6816  32688.3  180.294
 7.8796  33348.8  182.107
 8.0776  34829.3  187.084
 8.2756  36543.3  190.259
 8.4736  37059.2  191.398
 8.6716  36389.3  190.278
 8.8696  37250  193.07
 9.0676  36350.4  190.047
 9.2656  35299.9  187.973
 9.4636  33965.3  182.853
 9.6616  33301.5  181.782
 9.8596  32649.6  179.433
 10.0576  30759.9  174.822
 10.2556  29750.3  172.38
 10.4536  28735.7  169.017
 10.6516  28250.6  167.797
 10.8496  26894.3  163.146
 11.0476  26091.5  160.641
 11.2456  25494.1  159.375
 11.4436  25443.4  158.4
 11.6416  26857.5  163.1
 11.8396  24713.5  156.658
 12.0376  24017.9  154.053
 12.2356  23851.6  153.983
 12.4336  23661.6  152.889
 12.6316  23604  152.971
 12.8296  23673.1  152.784
 13.0276  24046.8  154.208
 13.2256  24478.6  155.961
 13.4236  24349.7  155.317
 13.6216  24513.8  155.843
 13.8196  26426.9  161.255
 14.0176  23720.1  153.363
 14.2156  23360.5  151.233
 14.4136  22103.8  148.488
 14.6116  21706.2  146.347
 14.8096  21116  144.325
 15.0076  20119.8  144.758
 15.2056  19051.2  136.696
 15.4036  18515.1  135.58
 15.6016  17956.7  132.62
 15.7996  17490.4  131.159
 15.9976  17220.8  133.04
 16.1956  16905.7  129.716
 16.3936  16622  127.822
 16.5916  16184.6  126.758
 16.7896  16139.7  126.636
 16.9876  16081.6  127.857
 17.1856  15917.3  125.569
 17.3836  15511.8  123.884
 17.5816  14985.3  122.239
 17.7796  15058  122.463
 17.9776  14454.3  120.752
 18.1756  14581.9  120.036
 18.3736  14130.3  118.63
 18.5716  14064.6  118.112
 18.7696  13980  117.33
 18.9676  13985.2  117.164
 19.1656  13592.6  116.077
 19.3636  13760.7  116.98
 19.5616  13571.1  116.34
 19.7596  13898  117.134
 19.9576  13746.7  116.54
 20.1556  14768.7  121.327
 20.3536  13789.9  116.631
 20.5516  13402.3  115.417
 20.7496  12918.6  113.258
 20.9476  13097  113.801
 21.1456  12854.3  113.053
 21.3436  12718.2  112.41
 21.5416  12676.6  112.235
 21.7396  12578.3  111.646
 21.9376  12454  110.867
 22.1356  12509.2  111.228
 22.3336  12425  111.111
 22.5316  12375.6  110.994
 22.7296  12259.8  109.853
 22.9276  12052.1  109.57
 23.1256  12242.6  109.928
 23.3236  12650  112.335
 23.5216  12510.6  111.344
 23.7196  12342.4  110.551
 23.9176  12529.1  111.138
 24.1156  12267.9  110.431
 24.3136  11753.2  108.877
 24.5116  11999.4  109.527
 24.7096  11630.7  107.644
 24.9076  11372.3  106.486
 25.1056  11148.3  105.608
 25.3036  10869.5  104.056
 25.5016  10800.1  103.772
 25.6996  10860.6  103.651
 25.8976  11014.8  104.822
 26.0956  10820.6  103.899
 26.2936  10747.3  103.199
 26.4916  10960.7  104.086
 26.6896  10644.2  102.876
 26.8876  10490.3  101.994
 27.0856  10367.9  101.404
 27.2836  10275.9  100.888
 27.4816  10200.6  100.461
 27.6796  10125.4  100.451
 27.8776  10299.8  101.163
 28.0756  9910.08  99.5119
 28.2736  9902.65  99.0605
 28.4716  9811.86  98.6684
 28.6696  9822  98.5664
 28.8676  9576.91  97.677
 29.0656  9546.39  97.4928
 29.2636  9618.16  97.5781
 29.4616  9214.7  95.7538
 29.6596  9314.53  95.8449
 29.8576  9192.06  95.8854
 30.0556  9059.55  95.0729
 30.2536  9278.86  96.0083
 30.4516  9500.44  96.814
 30.6496  9306.87  95.5463
 30.8476  9396.54  96.4558
 31.0456  9438.73  96.6457
 31.2436  9448.81  95.9548
 31.4416  9179.4  94.7472
 31.6396  9240.71  95.1134
 31.8376  9275.46  94.8161
 32.0356  9115.24  94.5351
 32.2336  9176.59  94.2915
 32.4316  8961.35  93.5681
 32.6296  8879.69  92.9165
 32.8276  8843.8  92.5799
 33.0256  8865.09  92.7525
 33.2236  8767.57  92.385
 33.4216  8758.86  92.0263
 33.6196  8805.17  92.5622
 33.8176  8888.23  93.1751
 34.0156  8744.88  92.0439
 34.2136  8649.46  91.568
 34.4116  8532.45  91.1057
 34.6096  8525.25  90.9449
 34.8076  8413.73  90.7633
 35.0056  8406.36  90.3957
 35.2036  8713.1  92.264
 35.4016  8444.83  90.7353
 35.5996  8325.93  90.1348
 35.7976  8242.16  89.9495
 35.9956  8541.02  91.2111
 36.1936  8522.08  90.9647
 36.3916  8239.75  89.6385
 36.5896  8293.78  91.3906
 36.7876  7941.37  88.355
 36.9856  7918.83  88.2516
 37.1836  7851.33  87.0007
 37.3816  7928.44  87.7883
 37.5796  8033.04  90.0896
 37.7776  8051.12  88.5776
 37.9756  8089.11  88.6683
 38.1736  8055.61  88.6797
 38.3716  8027.29  88.7899
 38.5696  7838.05  88.0913
 38.7676  7879.21  87.843
 38.9656  7976.77  88.0214
 39.1636  7987.56  88.3191
 39.3616  7793.31  87.1978
 39.5596  7777.98  87.9424
 39.7576  7734.07  87.0941
 39.9556  7709.53  86.5945
 40.1536  7820.39  87.4114
 40.3516  7903.36  87.88
 40.5496  7901.51  87.9103
 40.7476  7964.65  88.4809
 40.9456  7998.11  88.4251
 41.1436  7912.72  87.6818
 41.3416  7805.53  87.4093
 41.5396  7828.98  87.3548
 41.7376  7809.91  87.5037
 41.9356  7715.52  86.8354
 42.1336  8010.89  88.627
 42.3316  7735.02  87.2826
 42.5296  7800.14  87.1766
 42.7276  7902.29  87.9788
 42.9256  7798.2  87.2725
 43.1236  7629.64  86.4265
 43.3216  7730.3  86.856
 43.5196  7714.26  86.7193
 43.7176  7648.16  86.7484
 43.9156  7500.3  85.8014
 44.1136  7457.45  85.1203
 44.3116  7529.75  85.5454
 44.5096  7393.95  85.0755
 44.7076  7474.72  85.4698
 44.9056  7729.04  86.7979
 45.1036  7478.66  85.0047
 45.3016  7637.74  86.4084
 45.4996  7486.46  85.4853
 45.6976  7345.37  84.8515
 45.8956  7512.58  85.6196
 46.0936  7553.94  85.8632
 46.2916  7520.89  85.6445
 46.4896  7479.88  85.4391
 46.6876  7470.65  86.1154
 46.8856  7384.63  84.8703
 47.0836  7453.16  85.5284
 47.2816  7302.77  84.526
 47.4796  7395.81  85.1755
 47.6776  7261.1  85.3513
 47.8756  7345.58  85.0095
 48.0736  7304.97  85.2366
 48.2716  7252.42  84.7335
 48.4696  7398.21  85.1738
 48.6676  7286.91  85.1241
 48.8656  7312.4  84.9919
 49.0636  7420.48  85.5665
 49.2616  7187.67  84.2469
 49.4596  7371.05  84.8648
 49.6576  7213.77  84.1867
 49.8556  7241.11  84.3716
 50.0536  7263.84  84.956
 50.2516  7205.43  84.7207
 50.4496  7172.64  84.2035
 50.6476  7250.73  84.3429
 50.8456  7229.2  84.2971
 51.0436  6986  83.3134
 51.2416  6935.66  82.6858
 51.4396  6896.87  82.8568
 51.6376  7002.39  83.3058
 51.8356  7044.66  83.1603
 52.0336  6967.57  83.2475
 52.2316  6818.95  82.7114
 52.4296  6879.48  82.7827
 52.6276  6862.29  82.7755
 52.8256  7027.01  83.3336
 53.0236  7025.61  83.9584
 53.2216  6973.69  83.691
 53.4196  6901.75  83.1543
 53.6176  6928.83  83.8422
 53.8156  6777.93  82.5844
 54.0136  6507.12  81.0925
 54.2116  6726.47  82.0813
 54.4096  6594.13  81.3303
 54.6076  6559.28  81.4731
 54.8056  6471.62  80.6914
 55.0036  6455.68  81.0003
 55.2016  6692.39  81.9855
 55.3996  6357.67  79.8961
 55.5976  6422.12  80.4881
 55.7956  6472.52  80.6249
 55.9936  6388.74  80.2156
 56.1916  6421.37  80.4535
 56.3896  6230.03  79.2394
 56.5876  6232.97  79.8078
 56.7856  6318  79.8406
 56.9836  6364.26  79.9164
 57.1816  6419.6  80.6261
 57.3796  6137.06  78.6433
 57.5776  6295.25  79.542
 57.7756  6105.86  79.012
 57.9736  6115.02  78.7104
 58.1716  6143.69  79.1785
 58.3696  5913.27  77.429
 58.5676  5955.36  77.1739
 58.7656  5919.37  77.6188
 58.9636  5898.74  77.5109
 59.1616  5939.08  77.909
 59.3596  5989.92  77.5109
 59.5576  5789.64  76.2593
 59.7556  5818.55  76.86
 59.9536  5911.6  77.3721
 60.1516  5638.48  76.3838
 60.1996  0.0000000E+00  0.0000000E+00