Folder: echemistpy/docs/examples/opeando_xrd/IS17_D/Data/IS17_D (part 61)

File: 17_Db_f00002.xye
# /beamlines/bl04/projects/cycle2025-II/20250340211-lsimonelli/DATA/IS17_D/17_Db_f00002.xye : mythproc.py merge -s 0.006 -l 0.5 -f /beamlines/bl04/inhouse/ff/FlatField/ff_20Nov2024rod8mm60s_17keV.raw -b True -c true -o xye /beamlines/bl04/projects/cycle2025-II/20250340211-lsimonelli/DATA/IS17_D/17_Db_00002.dat
# IsMon = [6738906, 6731143, 6730964]  IsPos = [-1.5000, -2.4886, -3.4986]
# Wave = 0.4962  CalPath /beamlines/bl04/projects/cycle2025-II/20250340211-lsimonelli/DATA/Align/Si_Pos1_25keV_f00001.cal
# Date = 2025-09-23_18:15:59 Dt = 4.8000  Bin = 0.0060  <imon> = 6733671 +/- 3702 (Min/Max) 6730964 / 6738906
# icurr 248.7884  mocoIn 1.6979E-05  mocoOut 0.7966  i15 7.04085e+06  imon 6.73367e+06  i7 5.6667  iEMpd_timer 4.8000  iEMpd_1 3.4771E-08  iEMpd_2 7.8004E-08  iEMpd_3 1.7845E-08  iEMpd_4 4.7741E-08  iEMhp_timer 4.8000  iEMhp_1 4.8633E-06  iEMhp_2 -2.5497E-08  iEMhp_3 -2.2903E-08  iEMhp_4 -2.2737E-08
#      9776
 1.7416  70476.7  265.448
 1.9396  48423.4  220.32
 2.1376  35403.7  188.379
 2.3356  31863.1  178.335
 2.5336  29392.1  171.884
 2.7316  27099.8  165.211
 2.9296  25822.2  161.423
 3.1276  25335.6  159.421
 3.3256  24473.1  156.372
 3.5236  26202.1  161.726
 3.7216  23954.4  155.762
 3.9196  23249  152.674
 4.1176  23075.8  151.881
 4.3156  24041.2  155.218
 4.5136  26510.1  161.963
 4.7116  27670.1  166.608
 4.9096  26797.9  163.379
 5.1076  26412.5  162.77
 5.3056  26403.2  162.577
 5.5036  25967.3  161.071
 5.7016  26364.8  162.239
 5.8996  26979.4  163.36
 6.0976  27765.4  167.094
 6.2956  27866.9  166.787
 6.4936  28579.1  168.102
 6.6916  28926.2  170.097
 6.8896  29858.3  172.662
 7.0876  31056.4  176.727
 7.2856  30617.2  174.638
 7.4836  31251.4  175.797
 7.6816  31693.6  177.55
 7.8796  32368.1  179.475
 8.0776  33793.3  184.343
 8.2756  35559.8  187.739
 8.4736  36267  189.405
 8.6716  35466.4  187.914
 8.8696  35882.1  189.451
 9.0676  35213.5  187.024
 9.2656  34089.4  184.682
 9.4636  33288.5  181.014
 9.6616  32326.6  179.091
 9.8596  31784.8  177.02
 10.0576  30351.5  173.278
 10.2556  29121.7  170.53
 10.4536  27641.1  165.741
 10.6516  26875.3  163.64
 10.8496  25921.5  160.15
 11.0476  24984  157.211
 11.2456  24506.6  156.706
 11.4436  24773.7  156.305
 11.6416  25922.3  160.237
 11.8396  23861  153.902
 12.0376  23264.3  151.639
 12.2356  22915.8  150.931
 12.4336  23019.2  150.806
 12.6316  22768.6  150.217
 12.8296  22877.6  150.212
 13.0276  23245.8  151.634
 13.2256  23760.2  153.643
 13.4236  23538.1  152.71
 13.6216  23807.4  153.56
 13.8196  25782.1  159.1
 14.0176  22933  150.861
 14.2156  22385.9  148.044
 14.4136  21404.9  146.122
 14.6116  21069.1  144.184
 14.8096  20297.5  141.51
 15.0076  19256.9  141.612
 15.2056  18323.2  134.102
 15.4036  17701.5  132.611
 15.6016  17308.4  130.246
 15.7996  16831.7  128.704
 15.9976  16700.7  131.018
 16.1956  16274  127.259
 16.3936  15992  125.33
 16.5916  15627.3  124.534
 16.7896  15684.9  124.81
 16.9876  15529.5  125.624
 17.1856  15584.2  124.113
 17.3836  14983.6  121.74
 17.5816  14680.3  120.97
 17.7796  14325.6  119.431
 17.9776  13817.6  118.053
 18.1756  13746.8  116.475
 18.3736  13541  116.136
 18.5716  13487.8  115.669
 18.7696  13445.1  115.071
 18.9676  13387.3  114.606
 19.1656  13028.5  113.828
 19.3636  13058.4  114.059
 19.5616  13056.9  114.118
 19.7596  13326  114.687
 19.9576  13398.5  115.056
 20.1556  14113.7  118.619
 20.3536  13453.4  115.205
 20.5516  12888.8  113.188
 20.7496  12697.5  112.185
 20.9476  12521.7  111.256
 21.1456  12346.1  110.814
 21.3436  12319.8  110.635
 21.5416  12269.9  110.424
 21.7396  12081  109.414
 21.9376  11914.4  108.44
 22.1356  12137.4  109.595
 22.3336  11837.3  108.488
 22.5316  11813  108.482
 22.7296  11825  107.914
 22.9276  11781.2  108.372
 23.1256  11863.8  108.245
 23.3236  12291.5  110.708
 23.5216  12122.6  109.591
 23.7196  12127.9  109.766
 23.9176  12123.8  109.29
 24.1156  11901.4  108.737
 24.3136  11478.3  107.58
 24.5116  11614.3  107.743
 24.7096  11317.6  106.175
 24.9076  11186  105.576
 25.1056  10830  104.097
 25.3036  10592.2  102.795
 25.5016  10534.4  102.484
 25.6996  10641.3  102.598
 25.8976  10516.1  102.402
 26.0956  10416.5  101.943
 26.2936  10436.3  101.708
 26.4916  10828.3  103.455
 26.6896  10348.3  101.434
 26.8876  10276.3  100.938
 27.0856  10082.7  100.01
 27.2836  9864.49  99.0107
 27.4816  9886.46  98.8963
 27.6796  9727.31  98.4496
 27.8776  9942.11  99.3826
 28.0756  9626.95  98.0978
 28.2736  9662.41  97.8603
 28.4716  9413.74  96.6422
 28.6696  9543.7  97.1527
 28.8676  9408.06  96.8113
 29.0656  9261.42  96.0253
 29.2636  9465.51  96.785
 29.4616  8918.57  94.2326
 29.6596  8991.17  94.1985
 29.8576  8914.39  94.4583
 30.0556  8882.31  94.1744
 30.2536  9092.98  95.0762
 30.4516  9068.14  94.5623
 30.6496  9200.57  94.9947
 30.8476  8984.71  94.2885
 31.0456  9163.87  95.1957
 31.2436  9089.45  94.0841
 31.4416  8975.95  93.6814
 31.6396  8843.76  93.0243
 31.8376  9005.45  93.4142
 32.0356  8885.47  93.3309
 32.2336  8909.69  92.8809
 32.4316  8520.47  91.2483
 32.6296  8578.19  91.3237
 32.8276  8627.72  91.4434
 33.0256  8530.44  90.9887
 33.2236  8650.66  91.7634
 33.4216  8488.29  90.6395
 33.6196  8588.19  91.4547
 33.8176  8556.6  91.413
 34.0156  8418.94  90.3142
 34.2136  8494.83  90.7335
 34.4116  8179.94  89.2131
 34.6096  8280.84  89.6329
 34.8076  8155.49  89.3591
 35.0056  8109.62  88.7815
 35.2036  8395.25  90.5508
 35.4016  8220.42  89.5335
 35.5996  8109.15  88.9456
 35.7976  8054.46  88.9176
 35.9956  8144.73  89.0741
 36.1936  8175.89  89.068
 36.3916  7941.92  88.0003
 36.5896  7936.1  89.382
 36.7876  7689.89  86.9668
 36.9856  7642.43  86.7314
 37.1836  7671.81  86.0272
 37.3816  7727.67  86.6993
 37.5796  7715.36  88.2959
 37.7776  7928.84  87.8762
 37.9756  7843.43  87.2843
 38.1736  7877.16  87.671
 38.3716  7854.01  87.7984
 38.5696  7599.97  86.7422
 38.7676  7550.85  85.9824
 38.9656  7663.71  86.2536
 39.1636  7686.58  86.6299
 39.3616  7627.36  86.2656
 39.5596  7509.96  86.416
 39.7576  7498  85.7544
 39.9556  7621.37  86.0981
 40.1536  7700.52  86.741
 40.3516  7603.48  86.285
 40.5496  7713.29  86.8713
 40.7476  7731.71  87.18
 40.9456  7702.62  86.7787
 41.1436  7814.69  87.1224
 41.3416  7585.16  86.18
 41.5396  7662.82  86.4135
 41.7376  7539.97  85.9754
 41.9356  7505.23  85.6477
 42.1336  7823.03  87.5743
 42.3316  7500.35  85.959
 42.5296  7504.6  85.5063
 42.7276  7628.93  86.4492
 42.9256  7602.01  86.1676
 43.1236  7473.63  85.5463
 43.3216  7519.26  85.6552
 43.5196  7464.56  85.2552
 43.7176  7493.9  85.8616
 43.9156  7282.27  84.5805
 44.1136  7168.83  83.4844
 44.3116  7292.4  84.2161
 44.5096  7356.84  84.8911
 44.7076  7311.12  84.5401
 44.9056  7493.14  85.4464
 45.1036  7494.86  85.0753
 45.3016  7286.66  84.374
 45.4996  7307.62  84.4457
 45.6976  7159.23  83.7669
 45.8956  7305.27  84.4201
 46.0936  7423.68  84.8635
 46.2916  7426.57  85.1002
 46.4896  7334.74  84.6001
 46.6876  7264.49  84.9036
 46.8856  7150.8  83.6375
 47.0836  7088.88  83.3907
 47.2816  7091.65  83.3068
 47.4796  7150.25  83.7542
 47.6776  7129.84  84.5759
 47.8756  7124.06  83.7145
 48.0736  7125.35  84.1448
 48.2716  7096.61  83.8299
 48.4696  7270.65  84.4251
 48.6676  7124.81  84.1707
 48.8656  7209.18  84.3832
 49.0636  7239.36  84.5077
 49.2616  7036.38  83.3697
 49.4596  7056.56  83.0395
 49.6576  7028.81  83.1067
 49.8556  7050.48  83.2522
 50.0536  7097.33  83.9742
 50.2516  7026.34  83.6666
 50.4496  7076.77  83.5816
 50.6476  7101.15  83.4648
 50.8456  7104.61  83.5764
 51.0436  6790.33  82.1587
 51.2416  6823.65  82.0393
 51.4396  6723.77  81.8361
 51.6376  6738.75  81.7511
 51.8356  6846.86  81.9386
 52.0336  6783.86  82.1307
 52.2316  6765.15  82.3808
 52.4296  6659.8  81.445
 52.6276  6620.16  81.3124
 52.8256  6739.58  81.5906
 53.0236  6872.15  83.0328
 53.2216  6774.66  82.6645
 53.4196  6794.01  82.499
 53.6176  6834.56  83.2577
 53.8156  6699.13  82.0985
 54.0136  6445.67  80.7049
 54.2116  6548.56  80.9809
 54.4096  6490.19  80.697
 54.6076  6462.57  80.8591
 54.8056  6368.35  80.0443
 55.0036  6469.34  80.9371
 55.2016  6504.53  80.7398
 55.3996  6138.65  78.5191
 55.5976  6270.55  79.536
 55.7956  6279.44  79.4108
 55.9936  6343.15  79.9287
 56.1916  6216.7  79.1649
 56.3896  6085.2  78.3258
 56.5876  6124.31  79.1023
 56.7856  6154.3  78.7988
 56.9836  6172.03  78.6911
 57.1816  6149.45  78.9133
 57.3796  6003.92  77.767
 57.5776  6061.92  78.0518
 57.7756  6009.99  78.376
 57.9736  5995.74  77.9588
 58.1716  5890.7  77.5324
 58.3696  5712.7  76.1316
 58.5676  5738.59  75.7805
 58.7656  5760.73  76.596
 58.9636  5735.83  76.4626
 59.1616  5719.78  76.4812
 59.3596  5791.44  76.2281
 59.5576  5852.47  76.6924
 59.7556  5697.51  76.0766
 59.9536  5774.48  76.4899
 60.1516  5738.15  77.0764
 60.1996  0.0000000E+00  0.0000000E+00

File: 17_Db_f00003.xye
# /beamlines/bl04/projects/cycle2025-II/20250340211-lsimonelli/DATA/IS17_D/17_Db_f00003.xye : mythproc.py merge -s 0.006 -l 0.5 -f /beamlines/bl04/inhouse/ff/FlatField/ff_20Nov2024rod8mm60s_17keV.raw -b True -c true -o xye /beamlines/bl04/projects/cycle2025-II/20250340211-lsimonelli/DATA/IS17_D/17_Db_00003.dat
# IsMon = [6740478, 6734829, 6741786]  IsPos = [-1.5000, -2.4885, -3.4988]
# Wave = 0.4962  CalPath /beamlines/bl04/projects/cycle2025-II/20250340211-lsimonelli/DATA/Align/Si_Pos1_25keV_f00001.cal
# Date = 2025-09-23_18:32:32 Dt = 4.8000  Bin = 0.0060  <imon> = 6739031 +/- 3019 (Min/Max) 6734829 / 6741786
# icurr 249.5251  mocoIn 1.7023E-05  mocoOut 0.7985  i15 7.05194e+06  imon 6.73903e+06  i7 6.0000  iEMpd_timer 4.8000  iEMpd_1 3.5824E-08  iEMpd_2 7.8376E-08  iEMpd_3 1.6660E-08  iEMpd_4 4.6975E-08  iEMhp_timer 4.8000  iEMhp_1 4.8755E-06  iEMhp_2 -2.6051E-08  iEMhp_3 -2.2830E-08  iEMhp_4 -1.9582E-08
#      9776
 1.7416  70140.7  264.888
 1.9396  48382.2  220.284
 2.1376  35397.9  188.416
 2.3356  31586.8  177.61
 2.5336  28865  170.383
 2.7316  26630.3  163.806
 2.9296  25419.5  160.191
 3.1276  25113.5  158.746
 3.3256  24300.3  155.853
 3.5236  25975.6  161.069
 3.7216  23596.9  154.604
 3.9196  23032.9  151.942
 4.1176  23121.2  152.031
 4.3156  24042.3  155.203
 4.5136  26323.6  161.398
 4.7116  27224.2  165.256
 4.9096  26668.3  163
 5.1076  26493.8  163.034
 5.3056  26394.2  162.438
 5.5036  25793.4  160.594
 5.7016  26343.8  162.175
 5.8996  26627.7  162.291
 6.0976  27671.6  166.826
 6.2956  27816  166.633
 6.4936  28754.7  168.615
 6.6916  28918.5  170.076
 6.8896  29731.1  172.296
 7.0876  31088.7  176.837
 7.2856  30588.8  174.555
 7.4836  31049.1  175.222
 7.6816  31789.7  177.812
 7.8796  32687.4  180.321
 8.0776  34047.4  185.008
 8.2756  35714  188.096
 8.4736  36358.8  189.617
 8.6716  35243.5  187.314
 8.8696  36317.4  190.586
 9.0676  35249.3  187.091
 9.2656  33953.1  184.301
 9.4636  33420.1  181.34
 9.6616  32578.5  179.755
 9.8596  32191.6  178.186
 10.0576  29991.1  172.66
 10.2556  29059.4  170.385
 10.4536  27997.3  166.853
 10.6516  27039.3  164.17
 10.8496  26223.5  161.074
 11.0476  25170.7  157.803
 11.2456  24700.3  156.888
 11.4436  24820.8  156.447
 11.6416  25447.8  158.759
 11.8396  23826.1  153.803
 12.0376  23217.3  151.476
 12.2356  22933.2  150.986
 12.4336  23054.7  150.917
 12.6316  22780.6  150.262
 12.8296  22991.6  150.591
 13.0276  23274.5  151.721
 13.2256  23560.3  153.006
 13.4236  23557.2  152.765
 13.6216  23706.1  153.241
 13.8196  25974.5  159.834
 14.0176  22891.5  150.672
 14.2156  22704.9  149.088
 14.4136  21422.9  146.183
 14.6116  21142.4  144.431
 14.8096  20318  141.564
 15.0076  19389.4  142.111
 15.2056  18369.2  134.244
 15.4036  17664.8  132.457
 15.6016  17317.9  130.265
 15.7996  16813.5  128.61
 15.9976  16569.7  130.489
 16.1956  16322.3  127.428
 16.3936  15989.3  125.316
 16.5916  15549.9  124.218
 16.7896  15754.8  125.091
 16.9876  15607.7  125.946
 17.1856  15408.5  123.576
 17.3836  14785.1  120.956
 17.5816  14539.1  120.413
 17.7796  14299.1  119.336
 17.9776  13966.6  118.689
 18.1756  14002  117.626
 18.3736  13663.7  116.671
 18.5716  13583.1  116.069
 18.7696  13563.9  115.57
 18.9676  13479.4  115.01
 19.1656  13238.2  114.549
 19.3636  13034  113.863
 19.5616  12996.5  113.853
 19.7596  13360.3  114.846
 19.9576  13558.6  115.743
 20.1556  13952.9  117.937
 20.3536  13155.8  113.913
 20.5516  12912.5  113.291
 20.7496  12660.1  112.032
 20.9476  12674.9  111.943
 21.1456  12369.2  110.902
 21.3436  12309.3  110.588
 21.5416  12357.6  110.819
 21.7396  12094.7  109.475
 21.9376  11999.9  108.822
 22.1356  12197.1  109.991
 22.3336  11891.5  108.719
 22.5316  11776.9  108.303
 22.7296  11813  107.856
 22.9276  11657.3  107.786
 23.1256  11917.4  108.467
 23.3236  12212.2  110.343
 23.5216  12089.2  109.429
 23.7196  12191.9  110.061
 23.9176  12064.3  109.022
 24.1156  11856.2  108.53
 24.3136  11499.9  107.709
 24.5116  11444  106.974
 24.7096  11317  106.2
 24.9076  11235.4  105.83
 25.1056  10907.3  104.469
 25.3036  10471.5  102.149
 25.5016  10540  102.518
 25.6996  10654.9  102.662
 25.8976  10623.2  102.932
 26.0956  10420.9  101.964
 26.2936  10532.4  102.181
 26.4916  10738  103.025
 26.6896  10362.7  101.506
 26.8876  10308.8  101.092
 27.0856  10154.2  100.358
 27.2836  10024.8  99.6526
 27.4816  9888.9  98.9013
 27.6796  9892.93  99.2772
 27.8776  9899.34  99.1755
 28.0756  9665.57  98.2901
 28.2736  9689.46  98.0011
 28.4716  9398.1  96.5516
 28.6696  9522  97.0485
 28.8676  9386.21  96.6987
 29.0656  9410.14  96.7996
 29.2636  9436.28  96.6424
 29.4616  8953.83  94.4066
 29.6596  9032.78  94.4027
 29.8576  8894.17  94.335
 30.0556  8860.34  94.0265
 30.2536  9020.83  94.686
 30.4516  9275.61  95.6353
 30.6496  9047.78  94.1959
 30.8476  9046.86  94.6136
 31.0456  9033.14  94.5127
 31.2436  9176.85  94.5221
 31.4416  8896.12  93.2786
 31.6396  8905.13  93.3681
 31.8376  9023.72  93.5261
 32.0356  8791.54  92.8629
 32.2336  8888.28  92.7829
 32.4316  8576.99  91.5513
 32.6296  8704.78  91.99
 32.8276  8699.56  91.8229
 33.0256  8616.56  91.4369
 33.2236  8606.66  91.5317
 33.4216  8497.44  90.6348
 33.6196  8577.91  91.3662
 33.8176  8537.47  91.3135
 34.0156  8359.76  89.996
 34.2136  8440.71  90.4437
 34.4116  8296.53  89.8435
 34.6096  8346.34  89.9841
 34.8076  8163.11  89.4023
 35.0056  8206.7  89.3158
 35.2036  8380.05  90.4765
 35.4016  8094.35  88.834
 35.5996  8104.27  88.9203
 35.7976  8095.51  89.1392
 35.9956  8354.28  90.1993
 36.1936  8191.36  89.1664
 36.3916  7990.89  88.2753
 36.5896  7971.65  89.5877
 36.7876  7833.37  87.7675
 36.9856  7665.74  86.8472
 37.1836  7609.34  85.6673
 37.3816  7754.94  86.8305
 37.5796  7744.74  88.4626
 37.7776  7965.17  88.073
 37.9756  7966.84  87.9766
 38.1736  7879.9  87.6798
 38.3716  7694.4  86.8986
 38.5696  7712.31  87.3915
 38.7676  7497.1  85.6992
 38.9656  7712.1  86.5507
 39.1636  7684.17  86.6354
 39.3616  7704.22  86.7175
 39.5596  7551.8  86.6411
 39.7576  7480.75  85.6561
 39.9556  7616.53  86.0737
 40.1536  7712.2  86.8003
 40.3516  7698.16  86.7437
 40.5496  7743.83  87.0363
 40.7476  7664.7  86.8044
 40.9456  7748.96  87.0453
 41.1436  7785.01  86.9623
 41.3416  7594.96  86.2314
 41.5396  7525.95  85.6447
 41.7376  7513.04  85.8264
 41.9356  7603.44  86.2075
 42.1336  7752.24  87.1838
 42.3316  7518.71  86.0609
 42.5296  7561.5  85.8293
 42.7276  7450.61  85.4348
 42.9256  7562.07  85.9472
 43.1236  7540.6  85.9241
 43.3216  7556.92  85.8622
 43.5196  7439.94  85.163
 43.7176  7543.79  86.147
 43.9156  7101.07  83.5111
 44.1136  7250.12  83.943
 44.3116  7326.63  84.392
 44.5096  7199.56  83.9672
 44.7076  7283.54  84.3831
 44.9056  7392.03  84.8616
 45.1036  7439.05  84.7562
 45.3016  7239.37  84.1032
 45.4996  7333.36  84.5903
 45.6976  7203.36  84.0098
 45.8956  7272.41  84.2428
 46.0936  7345.34  84.4319
 46.2916  7370.02  84.7894
 46.4896  7393.07  84.9531
 46.6876  7231.72  84.7339
 46.8856  7198.89  83.7874
 47.0836  7150.17  83.7612
 47.2816  7142.67  83.6086
 47.4796  7146.48  83.7336
 47.6776  7149.18  84.6899
 47.8756  7068.6  83.3876
 48.0736  7167.63  84.4223
 48.2716  7141.16  84.0864
 48.4696  7230.51  84.1959
 48.6676  7181.56  84.5048
 48.8656  7186.39  84.2633
 49.0636  7251.08  84.5836
 49.2616  6965.74  82.9444
 49.4596  7141.21  83.5376
 49.6576  7009.08  82.9817
 49.8556  7024.36  83.0992
 50.0536  7010.89  83.4697
 50.2516  7001.29  83.5148
 50.4496  7003.34  83.2166
 50.6476  7045.97  83.131
 50.8456  7066.03  83.3384
 51.0436  6841.35  82.4619
 51.2416  6799.5  81.874
 51.4396  6673.63  81.5207
 51.6376  6808.46  82.1573
 51.8356  6841.46  81.9847
 52.0336  6791.02  82.1742
 52.2316  6811.57  82.6565
 52.4296  6804.97  82.3087
 52.6276  6634.44  81.3884
 52.8256  6748.22  81.6397
 53.0236  6893.37  83.1786
 53.2216  6798.95  82.625
 53.4196  6829.72  82.7214
 53.6176  6753.51  82.7742
 53.8156  6678.08  81.9771
 54.0136  6438.05  80.6539
 54.2116  6589.99  81.2424
 54.4096  6423.43  80.2823
 54.6076  6454.76  80.7948
 54.8056  6350.97  79.934
 55.0036  6444.03  80.8011
 55.2016  6373.08  79.9202
 55.3996  6195.49  78.8769
 55.5976  6320.79  79.8593
 55.7956  6234.62  79.1274
 55.9936  6324.53  79.8036
 56.1916  6262.23  79.4441
 56.3896  6125.18  78.5598
 56.5876  6170.15  79.3849
 56.7856  6135.39  78.6751
 56.9836  6169.43  78.6729
 57.1816  6230.32  79.4199
 57.3796  5971.95  77.5685
 57.5776  6092.85  78.2461
 57.7756  5975.91  78.1616
 57.9736  5991.14  77.9159
 58.1716  5975.63  78.0834
 58.3696  5764.02  76.4679
 58.5676  5858.68  76.5669
 58.7656  5828.82  77.0377
 58.9636  5692.78  76.1625
 59.1616  5762.28  76.7529
 59.3596  5877.52  76.769
 59.5576  5715.39  75.7582
 59.7556  5750.97  76.4017
 59.9536  5753.02  76.3167
 60.1516  5843.61  77.75
 60.1996  0.0000000E+00  0.0000000E+00