Folder: echemistpy/docs/examples/opeando_xrd/IS17_D/Data/IS17_D (part 89)

File: 17_Db_f00075.xye
# /beamlines/bl04/projects/cycle2025-II/20250340211-lsimonelli/DATA/IS17_D/17_Db_f00075.xye : mythproc.py merge -s 0.006 -l 0.5 -f /beamlines/bl04/inhouse/ff/FlatField/ff_20Nov2024rod8mm60s_17keV.raw -b True -c true -o xye /beamlines/bl04/projects/cycle2025-II/20250340211-lsimonelli/DATA/IS17_D/17_Db_00075.dat
# IsMon = [6751406, 6747982, 6746028]  IsPos = [-1.4999, -2.4884, -3.4989]
# Wave = 0.4962  CalPath /beamlines/bl04/projects/cycle2025-II/20250340211-lsimonelli/DATA/Align/Si_Pos1_25keV_f00001.cal
# Date = 2025-09-24_14:34:05 Dt = 4.8000  Bin = 0.0060  <imon> = 6748472 +/- 2223 (Min/Max) 6746028 / 6751406
# icurr 249.3333  mocoIn 1.7014E-05  mocoOut 0.7981  i15 7.07064e+06  imon 6.74847e+06  i7 6.0000  iEMpd_timer 4.8000  iEMpd_1 3.3565E-08  iEMpd_2 7.8381E-08  iEMpd_3 1.5495E-08  iEMpd_4 4.7414E-08  iEMhp_timer 4.8000  iEMhp_1 4.8712E-06  iEMhp_2 -2.5248E-08  iEMhp_3 -2.4199E-08  iEMhp_4 -2.0861E-08
#      9776
 1.7416  67602.8  260.023
 1.9396  46817.2  216.671
 2.1376  33907.8  184.387
 2.3356  30487.1  174.472
 2.5336  30627.4  175.489
 2.7316  26068.9  162.039
 2.9296  24574.8  157.472
 3.1276  24077.2  155.418
 3.3256  23613  153.603
 3.5236  25041.2  157.975
 3.7216  22965.7  152.525
 3.9196  23207.7  152.542
 4.1176  22486  149.928
 4.3156  23400.1  153.13
 4.5136  26463.8  161.818
 4.7116  27111.1  164.909
 4.9096  26434.1  162.282
 5.1076  25836  160.987
 5.3056  25881.8  160.881
 5.5036  25516.8  159.649
 5.7016  25970.5  161.019
 5.8996  26329.1  161.378
 6.0976  27281  165.642
 6.2956  27480.2  165.628
 6.4936  28276.4  167.211
 6.6916  28692.4  169.407
 6.8896  29844.4  172.632
 7.0876  30442.2  175.081
 7.2856  30350.9  173.878
 7.4836  31354.8  176.082
 7.6816  31894.4  178.099
 7.8796  32588.6  180.069
 8.0776  36502  191.572
 8.2756  36776.6  190.913
 8.4736  36341.2  189.583
 8.6716  35967.9  189.218
 8.8696  37392.5  193.414
 9.0676  37079.6  191.926
 9.2656  34575.8  186.014
 9.4636  33648.5  181.999
 9.6616  32846.7  180.533
 9.8596  32214.5  178.217
 10.0576  30383.5  173.752
 10.2556  29651.2  172.079
 10.4536  34117.9  184.143
 10.6516  34813.8  186.253
 10.8496  27132.9  163.861
 11.0476  26920.8  163.231
 11.2456  30281.2  173.697
 11.4436  26218.4  160.797
 11.6416  25222.7  158.052
 11.8396  24454.9  155.82
 12.0376  23661.2  152.94
 12.2356  25501  159.19
 12.4336  24319.2  155.004
 12.6316  23273.8  151.878
 12.8296  23862.7  153.426
 13.0276  23805.1  153.446
 13.2256  23671.9  153.371
 13.4236  23832.5  153.657
 13.6216  24057.8  154.372
 13.8196  27193.1  163.587
 14.0176  23174.7  151.499
 14.2156  22996.3  150.048
 14.4136  21646.3  146.941
 14.6116  21486.4  145.602
 14.8096  20456.9  142.056
 15.0076  19910.9  144
 15.2056  18811.1  135.863
 15.4036  18031.1  133.833
 15.6016  17668.4  131.583
 15.7996  17279  130.402
 15.9976  17021.3  132.865
 16.1956  16549.8  128.338
 16.3936  16415.8  127.007
 16.5916  16020.5  126.101
 16.7896  15983.2  126.011
 16.9876  15960.4  127.363
 17.1856  15734  124.848
 17.3836  14959.7  121.645
 17.5816  14820.7  121.547
 17.7796  14971.7  122.094
 17.9776  15021.8  123.099
 18.1756  16069.1  126.008
 18.3736  15915.1  125.901
 18.5716  14282  119.022
 18.7696  14332.1  118.797
 18.9676  14014.5  117.265
 19.1656  13644  116.301
 19.3636  13719.6  116.812
 19.5616  13721.6  116.985
 19.7596  13696  116.274
 19.9576  14300.7  118.865
 20.1556  13319.3  115.235
 20.3536  13066.5  113.529
 20.5516  12936.7  113.388
 20.7496  12816.8  112.803
 20.9476  13382.8  115.024
 21.1456  13236.3  114.735
 21.3436  12669.2  112.191
 21.5416  12665.3  112.189
 21.7396  12251.8  110.187
 21.9376  12431.9  110.775
 22.1356  12780  112.431
 22.3336  12306.4  110.621
 22.5316  12468.8  111.444
 22.7296  12002.7  108.722
 22.9276  12129.4  109.949
 23.1256  12547.9  111.313
 23.3236  12370.6  111.071
 23.5216  12332.6  110.543
 23.7196  12163.1  109.733
 23.9176  12246.8  109.858
 24.1156  12075.6  109.545
 24.3136  11953.1  109.782
 24.5116  11946.1  109.276
 24.7096  11862.7  108.705
 24.9076  11524.4  107.17
 25.1056  11383.4  106.973
 25.3036  10865.1  104.049
 25.5016  11022.2  104.835
 25.6996  10850.1  103.587
 25.8976  11211.4  105.738
 26.0956  10884.1  104.207
 26.2936  10840.7  103.657
 26.4916  11010.5  104.31
 26.6896  10685.5  103.077
 26.8876  10564.9  102.34
 27.0856  10466.9  101.941
 27.2836  10087.2  99.9619
 27.4816  10350.4  101.196
 27.6796  10185.6  100.748
 27.8776  10684.2  103.029
 28.0756  9962.27  99.7917
 28.2736  10083.9  99.9698
 28.4716  9773.03  98.474
 28.6696  9807.58  98.4971
 28.8676  9807.38  98.8466
 29.0656  9522.08  97.3702
 29.2636  9558.38  97.3418
 29.4616  9419.67  96.8379
 29.6596  9214.72  95.3536
 29.8576  9152.94  95.7024
 30.0556  9328.44  96.4937
 30.2536  9183.5  95.5424
 30.4516  9521.68  96.9187
 30.6496  9353.52  95.7821
 30.8476  9278.44  95.8312
 31.0456  9464.27  96.7527
 31.2436  9262.43  94.9884
 31.4416  9197.08  94.8311
 31.6396  9628.8  97.0523
 31.8376  9371.05  95.3026
 32.0356  9254.93  95.2564
 32.2336  9185.86  94.3133
 32.4316  8894.29  93.212
 32.6296  8811.42  92.6224
 32.8276  8862.11  92.6771
 33.0256  8684.01  91.7995
 33.2236  8917.09  93.1667
 33.4216  8751.34  92.0005
 33.6196  8700.99  92.0082
 33.8176  8768.71  92.5393
 34.0156  8531.6  90.9151
 34.2136  8691.71  91.7731
 34.4116  8445.05  90.6441
 34.6096  8554.16  91.0998
 34.8076  8518.02  91.3229
 35.0056  8408.06  90.393
 35.2036  8643.4  91.8822
 35.4016  8284.62  89.8773
 35.5996  8282.52  89.8975
 35.7976  8331.71  90.4374
 35.9956  8514.33  91.0668
 36.1936  8431.95  90.4792
 36.3916  8228.36  89.5672
 36.5896  8415.73  91.5734
 36.7876  7991.56  88.6574
 36.9856  7885.59  88.0952
 37.1836  7937.33  87.499
 37.3816  7972.56  88.0546
 37.5796  8033.53  90.0939
 37.7776  8065.41  88.6296
 37.9756  7996.88  88.1457
 38.1736  8183.24  89.358
 38.3716  8102.4  89.1976
 38.5696  7770.15  87.7123
 38.7676  7853.91  87.6881
 38.9656  7878.47  87.4644
 39.1636  7822.99  87.4151
 39.3616  7965.99  88.1556
 39.5596  7728.47  87.6714
 39.7576  7779.31  87.3481
 39.9556  7889.49  87.6051
 40.1536  7949.51  88.1307
 40.3516  7940.08  88.0875
 40.5496  7878.27  88.0029
 40.7476  7853.91  87.8599
 40.9456  7940.11  88.1011
 41.1436  7949.12  87.8679
 41.3416  7825.17  87.5283
 41.5396  7872.43  87.5959
 41.7376  7810.75  87.516
 41.9356  7721.61  86.876
 42.1336  7958.98  88.3306
 42.3316  7787.86  87.5966
 42.5296  7880.35  87.6238
 42.7276  7784.43  87.3306
 42.9256  7920.5  87.9592
 43.1236  7747.94  87.1009
 43.3216  7843.69  87.3857
 43.5196  7645.4  86.3284
 43.7176  7617.33  86.5614
 43.9156  7486.17  85.7498
 44.1136  7397.88  84.7962
 44.3116  7555.4  85.7138
 44.5096  7487.24  85.6307
 44.7076  7595.69  86.1799
 44.9056  7538.04  85.7085
 45.1036  7457.1  84.8702
 45.3016  7631  86.3527
 45.4996  7530.04  85.7272
 45.6976  7391.37  85.1155
 45.8956  7431  85.1444
 46.0936  7595.91  86.0855
 46.2916  7504.85  85.5522
 46.4896  7587.87  86.0466
 46.6876  7473.68  86.1173
 46.8856  7396.6  84.9439
 47.0836  7326.11  84.7806
 47.2816  7303.6  84.5395
 47.4796  7407.75  85.2536
 47.6776  7269.29  85.3916
 47.8756  7265.34  84.5456
 48.0736  7294.76  85.1704
 48.2716  7234.85  84.6407
 48.4696  7442.37  85.4222
 48.6676  7320.38  85.3168
 48.8656  7298.84  84.9214
 49.0636  7504.08  86.0343
 49.2616  7191.14  84.273
 49.4596  7256.3  84.2046
 49.6576  7273.19  84.535
 49.8556  7193.06  84.0901
 50.0536  7232.59  84.7738
 50.2516  7221.57  84.8339
 50.4496  7170.3  84.191
 50.6476  7224.01  84.1798
 50.8456  7254.93  84.4493
 51.0436  6952.88  83.1352
 51.2416  6902.03  82.5046
 51.4396  6766.98  82.0933
 51.6376  6959.76  83.073
 51.8356  6929.71  82.5096
 52.0336  6936.45  83.0597
 52.2316  7008.45  83.8562
 52.4296  6839.89  82.5449
 52.6276  6800.59  82.4172
 52.8256  6981.85  83.0528
 53.0236  6934.18  83.41
 53.2216  6776.9  82.4925
 53.4196  6935.67  83.3595
 53.6176  6878.94  83.5272
 53.8156  6764.78  82.4982
 54.0136  6573.91  81.5073
 54.2116  6735.52  82.1106
 54.4096  6564.5  81.1482
 54.6076  6535.34  81.3119
 54.8056  6476.41  80.7168
 55.0036  6504.48  81.3148
 55.2016  6505.35  80.88
 55.3996  6270.93  79.3411
 55.5976  6404.18  80.3804
 55.7956  6446.82  80.4576
 55.9936  6512.67  81.001
 56.1916  6348.9  80.0149
 56.3896  6165.4  78.8251
 56.5876  6315.37  80.3291
 56.7856  6259.75  79.4651
 56.9836  6317.96  79.6169
 57.1816  6294.31  79.7314
 57.3796  6151.5  78.7342
 57.5776  6215.44  79.0422
 57.7756  6163.92  79.3756
 57.9736  6158.57  79.0141
 58.1716  5995.63  78.2225
 58.3696  5965.65  77.7926
 58.5676  5950.26  77.1654
 58.7656  5875.57  77.3494
 58.9636  5878.51  77.3895
 59.1616  5986.23  78.2374
 59.3596  5907.96  76.9969
 59.5576  5957.79  77.3779
 59.7556  5992.84  78.0218
 59.9536  6033.04  78.182
 60.1516  5826.85  77.6683
 60.1996  5748.82  80.2163

File: 17_Db_f00077.xye
# /beamlines/bl04/projects/cycle2025-II/20250340211-lsimonelli/DATA/IS17_D/17_Db_f00077.xye : mythproc.py merge -s 0.006 -l 0.5 -f /beamlines/bl04/inhouse/ff/FlatField/ff_20Nov2024rod8mm60s_17keV.raw -b True -c true -o xye /beamlines/bl04/projects/cycle2025-II/20250340211-lsimonelli/DATA/IS17_D/17_Db_00077.dat
# IsMon = [6759208, 6756389, 6756394]  IsPos = [-1.4999, -2.4884, -3.4988]
# Wave = 0.4962  CalPath /beamlines/bl04/projects/cycle2025-II/20250340211-lsimonelli/DATA/Align/Si_Pos1_25keV_f00001.cal
# Date = 2025-09-24_15:09:42 Dt = 4.8000  Bin = 0.0060  <imon> = 6757330 +/- 1328 (Min/Max) 6756389 / 6759208
# icurr 250.3141  mocoIn 1.7076E-05  mocoOut 0.8012  i15 7.08011e+06  imon 6.75733e+06  i7 5.6667  iEMpd_timer 4.8000  iEMpd_1 3.2190E-08  iEMpd_2 7.9203E-08  iEMpd_3 1.5711E-08  iEMpd_4 4.5973E-08  iEMhp_timer 4.8000  iEMhp_1 4.8890E-06  iEMhp_2 -2.4780E-08  iEMhp_3 -2.4508E-08  iEMhp_4 -2.1148E-08
#      9776
 1.7416  68608.6  261.971
 1.9396  47110.4  217.36
 2.1376  34430.4  185.818
 2.3356  31140.5  176.345
 2.5336  30332.1  174.654
 2.7316  26503.6  163.392
 2.9296  25105.5  159.184
 3.1276  24645.2  157.251
 3.3256  23770.1  154.106
 3.5236  25471.1  159.333
 3.7216  23416.8  154.009
 3.9196  23194  152.489
 4.1176  22995.5  151.616
 4.3156  23920.5  154.821
 4.5136  26839.5  162.963
 4.7116  27457.9  165.962
 4.9096  26584.8  162.742
 5.1076  26122.6  161.886
 5.3056  26239  161.982
 5.5036  26034.9  161.263
 5.7016  26595.4  162.946
 5.8996  27047.1  163.56
 6.0976  27791.9  167.19
 6.2956  27984.9  167.139
 6.4936  28615.4  168.212
 6.6916  28972.8  170.227
 6.8896  30232.3  173.728
 7.0876  30816.6  176.154
 7.2856  30806.6  175.179
 7.4836  31373.9  176.137
 7.6816  31904  178.137
 7.8796  33017.3  181.247
 8.0776  36542.9  191.668
 8.2756  36958.1  191.366
 8.4736  36818.3  190.815
 8.6716  36110.1  189.591
 8.8696  37634.4  194.033
 9.0676  36803.5  191.191
 9.2656  35125.3  187.487
 9.4636  33931.8  182.754
 9.6616  33063.3  181.117
 9.8596  32672.2  179.484
 10.0576  30535  174.195
 10.2556  29693.5  172.209
 10.4536  33227.2  181.751
 10.6516  34542.5  185.52
 10.8496  27284.1  164.313
 11.0476  27078.7  163.713
 11.2456  29100.4  170.279
 11.4436  26057.6  160.303
 11.6416  25615.5  159.258
 11.8396  24467  155.863
 12.0376  23716.4  153.107
 12.2356  25505.9  159.205
 12.4336  24325.4  155.023
 12.6316  23518.3  152.685
 12.8296  23900.8  153.538
 13.0276  23906.5  153.773
 13.2256  23704.8  153.473
 13.4236  23951.9  154.044
 13.6216  24208  154.857
 13.8196  27144.4  163.405
 14.0176  23392.5  152.313
 14.2156  23131.8  150.499
 14.4136  21767.9  147.354
 14.6116  21459.3  145.508
 14.8096  20765.5  143.123
 15.0076  20080.7  144.604
 15.2056  18975.4  136.445
 15.4036  18252.5  134.645
 15.6016  17710.4  131.735
 15.7996  17446.1  131.018
 15.9976  17039.1  132.343
 16.1956  16733.8  129.04
 16.3936  16330  126.667
 16.5916  16367.2  127.455
 16.7896  16267.6  127.119
 16.9876  15933  127.257
 17.1856  15791.1  125.077
 17.3836  15321.5  123.113
 17.5816  15002.2  122.297
 17.7796  15217.8  123.105
 17.9776  14999.7  123.012
 18.1756  15732.9  124.679
 18.3736  15978  126.137
 18.5716  14324.8  119.195
 18.7696  14511.6  119.546
 18.9676  14155.3  117.861
 19.1656  13721.2  116.626
 19.3636  13764  117.004
 19.5616  13854.9  117.555
 19.7596  13883.4  117.076
 19.9576  14456  119.511
 20.1556  13512.8  116.063
 20.3536  13359.2  114.794
 20.5516  13088.5  114.058
 20.7496  12889.3  113.126
 20.9476  13328.5  114.789
 21.1456  13272.6  114.884
 21.3436  12758.3  112.586
 21.5416  12706  112.37
 21.7396  12389.9  110.805
 21.9376  12637.5  111.683
 22.1356  12735.1  112.236
 22.3336  12458.1  111.3
 22.5316  12373.6  111.01
 22.7296  12158.1  109.412
 22.9276  12042.1  109.55
 23.1256  12544.4  111.297
 23.3236  12466.7  111.501
 23.5216  12419.8  110.934
 23.7196  12325  110.46
 23.9176  12448.9  110.759
 24.1156  12019.3  109.29
 24.3136  11860.2  109.361
 24.5116  11996  109.503
 24.7096  11767.9  108.267
 24.9076  11674.7  107.862
 25.1056  11170.5  105.979
 25.3036  10906.8  104.249
 25.5016  11061.1  105.013
 25.6996  10985.2  104.243
 25.8976  11460.3  106.908
 26.0956  10920  104.379
 26.2936  10871.9  103.808
 26.4916  11166.8  105.058
 26.6896  10772.1  103.494
 26.8876  10541.4  102.231
 27.0856  10504  102.117
 27.2836  10265.2  100.83
 27.4816  10303.1  100.958
 27.6796  10192.9  100.778
 27.8776  10691.4  103.064
 28.0756  10013.6  100.047
 28.2736  10182.3  100.457
 28.4716  9866.72  98.9417
 28.6696  9915.27  99.0324
 28.8676  9783.87  98.7268
 29.0656  9613.59  97.8376
 29.2636  9702.99  98.084
 29.4616  9291.13  96.1685
 29.6596  9275.8  95.6663
 29.8576  9192.75  95.9069
 30.0556  9307.48  96.3821
 30.2536  9366.2  96.4836
 30.4516  9599.97  97.3016
 30.6496  9413.72  96.0947
 30.8476  9396.24  96.4479
 31.0456  9423.02  96.5407
 31.2436  9375.26  95.5647
 31.4416  9279.96  95.2636
 31.6396  9553.37  96.6948
 31.8376  9512.96  96.0199
 32.0356  9188.42  94.9314
 32.2336  9275.57  94.785
 32.4316  8909.33  93.3001
 32.6296  8736.62  92.23
 32.8276  8844.59  92.5861
 33.0256  8840.13  92.6205
 33.2236  8765.91  92.3753
 33.4216  8738.27  91.9316
 33.6196  8740.17  92.2312
 33.8176  8800.18  92.7081
 34.0156  8563.42  91.0858
 34.2136  8750.73  92.092
 34.4116  8453.51  90.6899
 34.6096  8547.09  91.0627
 34.8076  8509.13  91.2763
 35.0056  8492  90.8498
 35.2036  8684.33  92.102
 35.4016  8398.69  90.4941
 35.5996  8387.66  90.4678
 35.7976  8302.5  90.2623
 35.9956  8551.69  91.2629
 36.1936  8400.57  90.3007
 36.3916  8250.38  89.692
 36.5896  8391.26  91.4469
 36.7876  8030.68  88.8704
 36.9856  7969.52  88.5558
 37.1836  7948.73  87.559
 37.3816  7983.2  88.1089
 37.5796  8015.44  89.9844
 37.7776  8226.52  89.5129
 37.9756  8145.81  88.9622
 38.1736  8178.38  89.332
 38.3716  8041.23  88.8524
 38.5696  7872.53  88.282
 38.7676  7803.83  87.4196
 38.9656  8014.34  88.2092
 39.1636  7949.57  88.126
 39.3616  7995.28  88.3266
 39.5596  7733.32  87.6954
 39.7576  7707.57  86.9401
 39.9556  7818.56  87.2105
 40.1536  7997.34  88.3954
 40.3516  7909.98  87.9164
 40.5496  7904.86  88.1338
 40.7476  7905.84  88.1552
 40.9456  7993.48  88.4009
 41.1436  8026.54  88.2994
 41.3416  7804.48  87.4112
 41.5396  7915  87.829
 41.7376  7820.65  87.5652
 41.9356  7707.68  86.7949
 42.1336  7875.84  87.8734
 42.3316  7745.4  87.3503
 42.5296  7905.88  87.76
 42.7276  7906.61  88.0112
 42.9256  7754.76  87.0258
 43.1236  7703.07  86.8455
 43.3216  7858.19  87.4608
 43.5196  7655.2  86.388
 43.7176  7734.28  87.2295
 43.9156  7480.25  85.7124
 44.1136  7522.25  85.5074
 44.3116  7522.74  85.5189
 44.5096  7372.45  84.9706
 44.7076  7433.09  85.2468
 44.9056  7582.43  85.959
 45.1036  7554.79  85.4281
 45.3016  7500.63  85.6146
 45.4996  7477.55  85.4268
 45.6976  7354.46  84.8965
 45.8956  7484.09  85.4467
 46.0936  7683.35  86.5856
 46.2916  7527.8  85.6757
 46.4896  7564.69  85.9215
 46.6876  7458.4  86.0415
 46.8856  7470.46  85.365
 47.0836  7410.8  85.2723
 47.2816  7231.57  84.1186
 47.4796  7440.19  85.4345
 47.6776  7197.78  84.975
 47.8756  7294.77  84.7152
 48.0736  7318.96  85.3091
 48.2716  7192.89  84.3913
 48.4696  7371.88  85.0241
 48.6676  7382.95  85.6787
 48.8656  7303.72  84.9506
 49.0636  7441.49  85.6806
 49.2616  7140.49  83.9792
 49.4596  7316.91  84.5626
 49.6576  7166.55  83.911
 49.8556  7215.61  84.2203
 50.0536  7183.8  84.4862
 50.2516  7243.56  84.9643
 50.4496  7260.31  84.7178
 50.6476  7185.65  83.9561
 50.8456  7243.92  84.3885
 51.0436  6991.72  83.3621
 51.2416  6852.5  82.2033
 51.4396  6846.51  82.5699
 51.6376  6954.57  83.0343
 51.8356  6993.39  82.8853
 52.0336  6896.71  82.8221
 52.2316  6884.93  83.1106
 52.4296  6962.08  83.274
 52.6276  6796.61  82.3863
 52.8256  6981.45  83.0503
 53.0236  6960.24  83.5678
 53.2216  6930.43  83.4303
 53.4196  6869.71  82.9651
 53.6176  6947.68  83.948
 53.8156  6855.84  83.052
 54.0136  6549.7  81.3534
 54.2116  6707.82  81.9645
 54.4096  6554.85  81.0909
 54.6076  6584.25  81.6214
 54.8056  6476.06  80.7225
 55.0036  6410.22  80.7196
 55.2016  6603.23  81.444
 55.3996  6357.28  79.8935
 55.5976  6364.75  80.1396
 55.7956  6434.53  80.3676
 55.9936  6477.19  80.7605
 56.1916  6287.9  79.6198
 56.3896  6263.81  79.4618
 56.5876  6343.33  80.5127
 56.7856  6255.38  79.4455
 56.9836  6307.87  79.5405
 57.1816  6399.34  80.4889
 57.3796  6241.5  79.3142
 57.5776  6229.92  79.0945
 57.7756  6158.78  79.3438
 57.9736  6194.46  79.2359
 58.1716  6098.31  78.8774
 58.3696  5901.89  77.3719
 58.5676  5927.59  77.0162
 58.7656  5850.41  77.1811
 58.9636  5940.77  77.8052
 59.1616  6007.08  78.3634
 59.3596  6009.85  77.6497
 59.5576  5953.47  77.3412
 59.7556  5944.22  77.696
 59.9536  6123.53  78.7573
 60.1516  5841.98  77.7604
 60.1996  0.0000000E+00  0.0000000E+00