Folder: echemistpy/docs/examples/opeando_xrd/IS17_D/Data/IS17_D (part 93)

File: 17_Db_f00086.xye
# /beamlines/bl04/projects/cycle2025-II/20250340211-lsimonelli/DATA/IS17_D/17_Db_f00086.xye : mythproc.py merge -s 0.006 -l 0.5 -f /beamlines/bl04/inhouse/ff/FlatField/ff_20Nov2024rod8mm60s_17keV.raw -b True -c true -o xye /beamlines/bl04/projects/cycle2025-II/20250340211-lsimonelli/DATA/IS17_D/17_Db_00086.dat
# IsMon = [6788887, 6788738, 6786038]  IsPos = [-1.4999, -2.4884, -3.4988]
# Wave = 0.4962  CalPath /beamlines/bl04/projects/cycle2025-II/20250340211-lsimonelli/DATA/Align/Si_Pos1_25keV_f00001.cal
# Date = 2025-09-24_17:38:57 Dt = 4.8000  Bin = 0.0060  <imon> = 6787888 +/- 1309 (Min/Max) 6786038 / 6788887
# icurr 252.8685  mocoIn 1.7245E-05  mocoOut 0.8095  i15 7.10719e+06  imon 6.78789e+06  i7 5.3333  iEMpd_timer 4.8000  iEMpd_1 3.3388E-08  iEMpd_2 7.7499E-08  iEMpd_3 1.5522E-08  iEMpd_4 4.5862E-08  iEMhp_timer 4.8000  iEMhp_1 4.9377E-06  iEMhp_2 -2.6013E-08  iEMhp_3 -2.3210E-08  iEMhp_4 -2.0588E-08
#      9776
 1.7416  70452.2  265.485
 1.9396  48637.1  220.874
 2.1376  35764.4  189.395
 2.3356  31957.3  178.655
 2.5336  29581.6  172.491
 2.7316  27238.9  165.639
 2.9296  25973  161.892
 3.1276  25317.7  159.386
 3.3256  24658.6  156.961
 3.5236  26409  162.235
 3.7216  24295.4  156.876
 3.9196  23831.6  154.563
 4.1176  23678.7  153.857
 4.3156  24755.8  157.502
 4.5136  26877.2  163.074
 4.7116  28240  168.311
 4.9096  27494  165.498
 5.1076  27238  165.31
 5.3056  27108.8  164.646
 5.5036  27187.2  164.787
 5.7016  27619.2  166.054
 5.8996  28173.9  166.937
 6.0976  29102.2  171.094
 6.2956  29025.5  170.214
 6.4936  29737.8  171.475
 6.6916  30042  173.345
 6.8896  30618.2  174.848
 7.0876  31728.3  178.743
 7.2856  31581.3  177.371
 7.4836  31914.1  177.654
 7.6816  32754.7  180.481
 7.8796  33411.1  182.304
 8.0776  34917.4  187.354
 8.2756  36502.8  190.188
 8.4736  37141.3  191.646
 8.6716  36464.9  190.507
 8.8696  37372.3  193.372
 9.0676  36754.4  191.089
 9.2656  35685.4  188.984
 9.4636  34421.3  184.078
 9.6616  33846.1  183.269
 9.8596  33220.6  180.976
 10.0576  31130.5  175.868
 10.2556  30382.1  174.185
 10.4536  29597.6  171.519
 10.6516  29151.6  170.436
 10.8496  27872.8  166.077
 11.0476  27042.7  163.597
 11.2456  26217.7  161.619
 11.4436  26655.5  162.131
 11.6416  26027.9  160.544
 11.8396  24884  157.179
 12.0376  24273.5  154.902
 12.2356  23900.3  154.111
 12.4336  23823.4  153.414
 12.6316  23969  154.138
 12.8296  24004.2  153.868
 13.0276  24170.7  154.615
 13.2256  24528.8  156.119
 13.4236  24263.2  155.04
 13.6216  24708.9  156.454
 13.8196  26648.4  161.914
 14.0176  23627.4  153.076
 14.2156  23265.5  150.926
 14.4136  22225.1  148.897
 14.6116  21796.1  146.642
 14.8096  21276  144.868
 15.0076  20269.3  145.293
 15.2056  19193  137.229
 15.4036  18351.6  134.994
 15.6016  18258.5  133.753
 15.7996  17679.9  131.894
 15.9976  17335.3  133.488
 16.1956  17088.7  130.393
 16.3936  16716.9  128.171
 16.5916  16535.1  128.115
 16.7896  16375.1  127.555
 16.9876  16171.5  128.191
 17.1856  16041.9  126.065
 17.3836  15705  124.64
 17.5816  15183  123.03
 17.7796  15183.1  122.96
 17.9776  14815.5  122.247
 18.1756  15051.4  121.953
 18.3736  14983.9  122.166
 18.5716  14736.6  120.908
 18.7696  14540.6  119.66
 18.9676  14436.8  119.033
 19.1656  13976.8  117.711
 19.3636  13945.9  117.769
 19.5616  13922.9  117.839
 19.7596  14282.5  118.731
 19.9576  14609.4  120.145
 20.1556  13859.9  117.546
 20.3536  13550  115.612
 20.5516  13447.7  115.608
 20.7496  13053.4  113.845
 20.9476  13087.7  113.75
 21.1456  13023.7  113.801
 21.3436  12856  113.014
 21.5416  12793.6  112.757
 21.7396  12649  111.958
 21.9376  12597.2  111.509
 22.1356  12561.9  111.465
 22.3336  12330.5  110.722
 22.5316  12359.6  110.946
 22.7296  12419.2  110.583
 22.9276  12344.9  110.916
 23.1256  12406.3  110.677
 23.3236  12591.5  112.064
 23.5216  12701.1  112.169
 23.7196  12337.1  110.519
 23.9176  12496.8  110.976
 24.1156  12188.6  110.059
 24.3136  12010.8  110.047
 24.5116  11977.7  109.42
 24.7096  11599.4  107.493
 24.9076  11473  106.937
 25.1056  11222  106.219
 25.3036  11034.3  104.856
 25.5016  11001.4  104.735
 25.6996  11025.2  104.428
 25.8976  10962.1  104.561
 26.0956  10853  104.056
 26.2936  10903.5  103.955
 26.4916  11036.1  104.442
 26.6896  10658.8  102.948
 26.8876  10586.7  102.448
 27.0856  10348.9  101.365
 27.2836  10348.5  101.242
 27.4816  10183.8  100.377
 27.6796  10315.4  101.388
 27.8776  10412.7  101.716
 28.0756  10056.9  100.26
 28.2736  10118.2  100.144
 28.4716  9854.73  98.8806
 28.6696  9973.03  99.3247
 28.8676  9712.34  98.3656
 29.0656  9565.37  97.5928
 29.2636  9746.05  98.2986
 29.4616  9446.29  96.9664
 29.6596  9478.48  96.702
 29.8576  9262.26  96.2678
 30.0556  9348.5  96.5918
 30.2536  9262.32  95.9416
 30.4516  9516.28  96.8809
 30.6496  9502.34  96.5445
 30.8476  9486.71  96.9122
 31.0456  9442.22  96.642
 31.2436  9419.48  95.7891
 31.4416  9263.4  95.173
 31.6396  9382.21  95.8123
 31.8376  9321.64  95.0386
 32.0356  9277.72  95.395
 32.2336  9301.6  94.9111
 32.4316  8931.09  93.4081
 32.6296  8827.15  92.7047
 32.8276  8927.41  93.017
 33.0256  8859.18  92.7213
 33.2236  8898.67  93.0742
 33.4216  8812.29  92.3227
 33.6196  8801.92  92.5451
 33.8176  8786.97  92.6388
 34.0156  8738.02  92.004
 34.2136  8745.93  92.0706
 34.4116  8521.78  91.0538
 34.6096  8558.34  91.125
 34.8076  8376.12  90.5589
 35.0056  8484.05  90.8106
 35.2036  8639.55  91.8644
 35.4016  8410.63  90.5564
 35.5996  8391.33  90.4893
 35.7976  8358.88  90.575
 35.9956  8522.26  91.1052
 36.1936  8440.1  90.5043
 36.3916  8211.91  89.4841
 36.5896  8234.06  90.5824
 36.7876  8161.53  89.5881
 36.9856  7953.39  88.4619
 37.1836  8002.23  87.8508
 37.3816  8060.14  88.5324
 37.5796  8081.97  90.3613
 37.7776  8155.58  89.1347
 37.9756  8049.25  88.4386
 38.1736  8248.53  89.7269
 38.3716  8124.11  89.3212
 38.5696  7986.61  88.9323
 38.7676  7897.85  87.9425
 38.9656  8027.18  88.2823
 39.1636  8040.54  88.6307
 39.3616  7892.88  87.7513
 39.5596  7741.73  87.7399
 39.7576  7802.58  87.4768
 39.9556  7892.61  87.6228
 40.1536  7980.86  88.3054
 40.3516  8031.36  88.5936
 40.5496  7879.19  88.0115
 40.7476  8070.51  89.0716
 40.9456  7988.4  88.3727
 41.1436  8120.85  88.821
 41.3416  7863.99  87.7442
 41.5396  7959.45  88.0724
 41.7376  7815.37  87.5313
 41.9356  7809.49  87.3669
 42.1336  8028.64  88.7157
 42.3316  7719.05  87.2042
 42.5296  7897.03  87.7103
 42.7276  7804.68  87.4361
 42.9256  7794.9  87.2581
 43.1236  7837.96  87.6011
 43.3216  7898.69  87.6871
 43.5196  7718.97  86.7437
 43.7176  7809.96  87.6572
 43.9156  7388.93  85.1853
 44.1136  7421.85  84.9321
 44.3116  7558.66  85.7281
 44.5096  7464.8  85.498
 44.7076  7582.55  86.0923
 44.9056  7644.56  86.3159
 45.1036  7638.64  85.9065
 45.3016  7583.79  86.0967
 45.4996  7554.86  85.8738
 45.6976  7404.15  85.1934
 45.8956  7529.51  85.71
 46.0936  7568.46  85.9318
 46.2916  7530.74  85.6993
 46.4896  7519.24  85.6657
 46.6876  7497.77  86.2497
 46.8856  7434.73  85.1536
 47.0836  7473.79  85.6398
 47.2816  7280.74  84.4041
 47.4796  7409.16  85.2522
 47.6776  7245.13  85.2535
 47.8756  7329.55  84.9144
 48.0736  7328.43  85.363
 48.2716  7251.59  84.7355
 48.4696  7456.63  85.5004
 48.6676  7422.5  85.911
 48.8656  7364.92  85.2895
 49.0636  7432.03  85.6246
 49.2616  7170.08  84.1498
 49.4596  7292.89  84.4087
 49.6576  7278.63  84.5722
 49.8556  7270.04  84.5402
 50.0536  7301.98  85.1642
 50.2516  7216.1  84.8095
 50.4496  7302.3  84.9635
 50.6476  7284.53  84.538
 50.8456  7213.06  84.1991
 51.0436  7058.52  83.7586
 51.2416  7001.72  83.0938
 51.4396  6898.55  82.8816
 51.6376  7019.88  83.4161
 51.8356  6882.2  82.2215
 52.0336  6889.17  82.7759
 52.2316  6975.39  83.6591
 52.4296  6835.44  82.5143
 52.6276  6802.7  82.4266
 52.8256  6898.47  82.5615
 53.0236  6968.06  83.6131
 53.2216  6961.56  83.6132
 53.4196  6927.55  83.303
 53.6176  6925.51  83.805
 53.8156  6845.06  82.9881
 54.0136  6631.05  81.8566
 54.2116  6819.32  82.6355
 54.4096  6644.93  81.6512
 54.6076  6616.19  81.8097
 54.8056  6494.31  80.8334
 55.0036  6578.83  81.7768
 55.2016  6658.04  81.7807
 55.3996  6419.85  80.2916
 55.5976  6430.9  80.5464
 55.7956  6410.2  80.222
 55.9936  6505.79  80.9514
 56.1916  6435.86  80.5511
 56.3896  6222.62  79.1766
 56.5876  6297.68  80.2226
 56.7856  6287.05  79.6519
 56.9836  6353.89  79.8234
 57.1816  6412.62  80.5635
 57.3796  6252.04  79.3567
 57.5776  6274.63  79.4145
 57.7756  6144.74  79.2446
 57.9736  6188.26  79.1861
 58.1716  6099.6  78.9032
 58.3696  5898.29  77.3451
 58.5676  5974.14  77.3124
 58.7656  5918.02  77.6201
 58.9636  5921.16  77.6748
 59.1616  5968.25  78.1099
 59.3596  5922.46  77.0886
 59.5576  5980.16  77.5195
 59.7556  5913.49  77.5001
 59.9536  6090.77  78.5517
 60.1516  5822.46  77.6356
 60.1996  0.0000000E+00  0.0000000E+00

File: 17_Db_f00087.xye
# /beamlines/bl04/projects/cycle2025-II/20250340211-lsimonelli/DATA/IS17_D/17_Db_f00087.xye : mythproc.py merge -s 0.006 -l 0.5 -f /beamlines/bl04/inhouse/ff/FlatField/ff_20Nov2024rod8mm60s_17keV.raw -b True -c true -o xye /beamlines/bl04/projects/cycle2025-II/20250340211-lsimonelli/DATA/IS17_D/17_Db_00087.dat
# IsMon = [6743782, 6742588, 6744669]  IsPos = [-1.4999, -2.4884, -3.4988]
# Wave = 0.4962  CalPath /beamlines/bl04/projects/cycle2025-II/20250340211-lsimonelli/DATA/Align/Si_Pos1_25keV_f00001.cal
# Date = 2025-09-24_17:55:30 Dt = 4.8000  Bin = 0.0060  <imon> = 6743680 +/- 853 (Min/Max) 6742588 / 6744669
# icurr 249.0098  mocoIn 1.6998E-05  mocoOut 0.7968  i15 7.06606e+06  imon 6.74368e+06  i7 5.3333  iEMpd_timer 4.8000  iEMpd_1 3.2807E-08  iEMpd_2 7.7536E-08  iEMpd_3 1.6377E-08  iEMpd_4 4.5851E-08  iEMhp_timer 4.8000  iEMhp_1 4.8661E-06  iEMhp_2 -2.3890E-08  iEMhp_3 -2.3700E-08  iEMhp_4 -2.0779E-08
#      9776
 1.7416  69361.1  263.439
 1.9396  48244.3  219.992
 2.1376  35132  187.725
 2.3356  31420.9  177.161
 2.5336  29011  170.831
 2.7316  26687  163.97
 2.9296  25746.7  161.206
 3.1276  25107.6  158.734
 3.3256  24334.1  155.943
 3.5236  25838  160.488
 3.7216  23929.6  155.683
 3.9196  23230.9  152.611
 4.1176  23470.2  153.168
 4.3156  24223.2  155.785
 4.5136  26547.5  162.075
 4.7116  27817.2  167.046
 4.9096  26967.6  163.908
 5.1076  26776.6  163.906
 5.3056  26994.8  164.292
 5.5036  26663.2  163.197
 5.7016  27065.4  164.379
 5.8996  27661.4  165.412
 6.0976  28641.2  169.732
 6.2956  28456.7  168.533
 6.4936  29334  170.298
 6.6916  29542.7  171.899
 6.8896  30290.8  173.912
 7.0876  31200.4  177.25
 7.2856  30995.7  175.713
 7.4836  31411.8  176.244
 7.6816  32141.3  178.784
 7.8796  32727.1  180.429
 8.0776  34126.8  185.215
 8.2756  35964.6  188.757
 8.4736  36755.9  190.644
 8.6716  36000.9  189.296
 8.8696  36724.1  191.671
 9.0676  35927.4  188.908
 9.2656  35218.9  187.735
 9.4636  34017.8  182.977
 9.6616  33114.8  181.25
 9.8596  32684.2  179.529
 10.0576  30673.4  174.592
 10.2556  29693.2  172.218
 10.4536  29089.9  170.065
 10.6516  28706.6  169.144
 10.8496  27581  165.207
 11.0476  26772  162.779
 11.2456  25871.2  160.556
 11.4436  26434.7  161.461
 11.6416  25529.1  159.006
 11.8396  24321.1  155.397
 12.0376  23940.2  153.827
 12.2356  23471.1  152.727
 12.4336  23613.1  152.735
 12.6316  23537.4  152.743
 12.8296  23433.2  152.024
 13.0276  23809.2  153.454
 13.2256  24060.9  154.62
 13.4236  23859.2  153.745
 13.6216  24259.1  155.011
 13.8196  26276.5  160.794
 14.0176  23320.9  152.078
 14.2156  22981.8  150
 14.4136  21895.6  147.786
 14.6116  21679.9  146.256
 14.8096  20864.9  143.462
 15.0076  20021.8  144.407
 15.2056  19134  137.011
 15.4036  18240.5  134.585
 15.6016  17930.5  132.54
 15.7996  17448.8  131.01
 15.9976  17140.9  132.721
 16.1956  16771.8  129.197
 16.3936  16633.4  127.834
 16.5916  16119.2  126.488
 16.7896  16337  127.397
 16.9876  16107.4  127.942
 17.1856  15802  125.134
 17.3836  15399.2  123.434
 17.5816  15059  122.541
 17.7796  14674.8  120.893
 17.9776  14539.7  121.103
 18.1756  14908.5  121.372
 18.3736  14707.7  121.037
 18.5716  14321.8  119.193
 18.7696  14233.7  118.389
 18.9676  14122.9  117.733
 19.1656  13794.7  116.937
 19.3636  13677.3  116.633
 19.5616  13675.2  116.789
 19.7596  14138.7  118.143
 19.9576  14136.6  118.18
 20.1556  13713.7  116.918
 20.3536  13332.6  114.678
 20.5516  13068.1  113.97
 20.7496  12749.3  112.506
 20.9476  12977.9  113.275
 21.1456  12769.4  112.678
 21.3436  12686.5  112.271
 21.5416  12665.9  112.189
 21.7396  12429.6  110.982
 21.9376  12340.5  110.361
 22.1356  12399.2  110.746
 22.3336  12172.5  110.014
 22.5316  12205.6  110.25
 22.7296  12297.9  110.029
 22.9276  11858.8  108.705
 23.1256  12330.6  110.324
 23.3236  12367.7  111.058
 23.5216  12380.4  110.753
 23.7196  12197.4  109.886
 23.9176  12428.8  110.674
 24.1156  12084.5  109.562
 24.3136  11521.9  107.796
 24.5116  11851.8  108.848
 24.7096  11596.7  107.496
 24.9076  11421.5  106.698
 25.1056  11034.7  105.329
 25.3036  10867.5  104.054
 25.5016  10867.8  104.101
 25.6996  10868.5  103.685
 25.8976  10869.3  104.119
 26.0956  10740.6  103.51
 26.2936  10597.1  102.489
 26.4916  10898.1  103.785
 26.6896  10579.3  102.562
 26.8876  10572.3  102.382
 27.0856  10246.9  100.853
 27.2836  10221.6  100.617
 27.4816  10068.3  99.8052
 27.6796  10107.7  100.366
 27.8776  10282.7  101.084
 28.0756  9869.96  99.321
 28.2736  9906.08  99.088
 28.4716  9708.78  98.1435
 28.6696  9812.26  98.5147
 28.8676  9715.45  98.3809
 29.0656  9490.39  97.2076
 29.2636  9515.9  97.1351
 29.4616  9281.59  96.115
 29.6596  9319.24  95.883
 29.8576  9173.72  95.8034
 30.0556  9119.91  95.3996
 30.2536  9191.1  95.5719
 30.4516  9451.53  96.5393
 30.6496  9438.36  96.2126
 30.8476  9426.59  96.5913
 31.0456  9437.37  96.6155
 31.2436  9349.28  95.4344
 31.4416  9210.72  94.914
 31.6396  9299.39  95.4064
 31.8376  9245.99  94.6649
 32.0356  9088.88  94.4123
 32.2336  9133.67  94.061
 32.4316  8795.34  92.702
 32.6296  8788.5  92.5042
 32.8276  8908.9  92.9213
 33.0256  8693.66  91.8562
 33.2236  8782.48  92.4716
 33.4216  8668.79  91.5524
 33.6196  8735.76  92.2043
 33.8176  8579.74  91.5428
 34.0156  8507.54  90.7713
 34.2136  8702.13  91.8274
 34.4116  8446.72  90.6495
 34.6096  8422.89  90.3964
 34.8076  8436.5  90.8861
 35.0056  8306.48  89.8567
 35.2036  8580.34  91.5492
 35.4016  8193.86  89.3781
 35.5996  8306.63  90.0235
 35.7976  8320.58  90.375
 35.9956  8317.9  90.0095
 36.1936  8354.81  90.0588
 36.3916  8135.16  89.0668
 36.5896  8123.52  89.9806
 36.7876  7909.89  88.1908
 36.9856  7757.04  87.3645
 37.1836  7804.62  86.7502
 37.3816  7877.07  87.5135
 37.5796  7930.76  89.5177
 37.7776  7966.11  88.0937
 37.9756  8019.13  88.2728
 38.1736  7960.46  88.1425
 38.3716  7947.52  88.3331
 38.5696  7813.58  87.9583
 38.7676  7802.25  87.4194
 38.9656  7803.83  87.0583
 39.1636  7823.48  87.4283
 39.3616  7913.31  87.8765
 39.5596  7662.23  87.2865
 39.7576  7702.28  86.9129
 39.9556  7826.77  87.2513
 40.1536  7865.76  87.6638
 40.3516  7759.22  87.0809
 40.5496  7895.12  88.098
 40.7476  7896.05  88.109
 40.9456  7865.17  87.6919
 41.1436  7990.17  88.1019
 41.3416  7694.77  86.7907
 41.5396  7768.54  87.0205
 41.7376  7661.4  86.6725
 41.9356  7603.6  86.2029
 42.1336  7867.99  87.8213
 42.3316  7597.64  86.514
 42.5296  7800.57  87.1793
 42.7276  7752.66  87.1485
 42.9256  7608.21  86.2074
 43.1236  7619.79  86.3773
 43.3216  7741.26  86.8052
 43.5196  7688.32  86.5756
 43.7176  7518.58  85.9951
 43.9156  7355.83  84.9902
 44.1136  7434.17  84.9993
 44.3116  7434.21  85.0109
 44.5096  7223.18  84.0944
 44.7076  7324.51  84.6174
 44.9056  7595.95  86.0348
 45.1036  7552.74  85.4156
 45.3016  7420.52  85.1633
 45.4996  7414.51  85.0641
 45.6976  7376.26  85.0216
 45.8956  7434.59  85.1762
 46.0936  7476.94  85.418
 46.2916  7384.01  84.8643
 46.4896  7398.81  84.9739
 46.6876  7408.12  85.7548
 46.8856  7277.31  84.2483
 47.0836  7327.38  84.7902
 47.2816  7229.85  84.1102
 47.4796  7244.25  84.2874
 47.6776  7120.88  84.5135
 47.8756  7283.75  84.6508
 48.0736  7254.58  84.9348
 48.2716  7145.29  84.1022
 48.4696  7418.28  85.2776
 48.6676  7317.69  85.2918
 48.8656  7323.15  85.0637
 49.0636  7292.49  84.8287
 49.2616  7132.28  83.9301
 49.4596  7130.96  83.4683
 49.6576  7149.92  83.8225
 49.8556  7164.42  83.9234
 50.0536  7180.88  84.4647
 50.2516  7177.64  84.5867
 50.4496  7110.81  83.8451
 50.6476  7102.13  83.4707
 50.8456  7168.26  83.9472
 51.0436  7025.4  83.5588
 51.2416  6943.57  82.7403
 51.4396  6707.3  81.7164
 51.6376  6851.45  82.4166
 51.8356  6910.99  82.3835
 52.0336  6919.79  82.9602
 52.2316  6893.44  83.1563
 52.4296  6955.17  83.2297
 52.6276  6790.03  82.3314
 52.8256  6975.95  83.018
 53.0236  6815.57  82.6993
 53.2216  6872.71  83.0842
 53.4196  6961.18  83.5185
 53.6176  6762  82.8285
 53.8156  6762.8  82.498
 54.0136  6458.67  80.7879
 54.2116  6754.67  82.238
 54.4096  6551.69  81.0695
 54.6076  6518.9  81.1986
 54.8056  6476.21  80.7245
 55.0036  6451.35  80.9804
 55.2016  6477.91  80.6441
 55.3996  6247  79.2025
 55.5976  6404.62  80.3886
 55.7956  6340.94  79.7874
 55.9936  6426.76  80.4622
 56.1916  6338.93  79.9473
 56.3896  6164.91  78.8223
 56.5876  6180.9  79.4696
 56.7856  6171.9  78.9159
 56.9836  6337.42  79.7329
 57.1816  6343.38  80.1373
 57.3796  6137.97  78.6467
 57.5776  6188.24  78.8708
 57.7756  6062.61  78.7157
 57.9736  6050.41  78.2959
 58.1716  6013.66  78.337
 58.3696  5810.22  76.7592
 58.5676  5863.21  76.5829
 58.7656  5959.45  77.8923
 58.9636  5835.94  77.1108
 59.1616  5875.68  77.5037
 59.3596  5770.88  76.0788
 59.5576  5856.23  76.696
 59.7556  5759.37  76.4675
 59.9536  5825.61  76.8067
 60.1516  5846.11  77.7768
 60.1996  0.0000000E+00  0.0000000E+00