Folder: echemistpy/docs/examples/opeando_xrd/IS17_D/Data/IS17_D (part 72)

File: 17_Db_f00031.xye
# /beamlines/bl04/projects/cycle2025-II/20250340211-lsimonelli/DATA/IS17_D/17_Db_f00031.xye : mythproc.py merge -s 0.006 -l 0.5 -f /beamlines/bl04/inhouse/ff/FlatField/ff_20Nov2024rod8mm60s_17keV.raw -b True -c true -o xye /beamlines/bl04/projects/cycle2025-II/20250340211-lsimonelli/DATA/IS17_D/17_Db_00031.dat
# IsMon = [6779106, 6783459, 6783048]  IsPos = [-1.5000, -2.4885, -3.4986]
# Wave = 0.4962  CalPath /beamlines/bl04/projects/cycle2025-II/20250340211-lsimonelli/DATA/Align/Si_Pos1_25keV_f00001.cal
# Date = 2025-09-24_02:21:11 Dt = 4.8000  Bin = 0.0060  <imon> = 6781871 +/- 1962 (Min/Max) 6779106 / 6783459
# icurr 252.3205  mocoIn 1.7208E-05  mocoOut 0.8072  i15 7.10013e+06  imon 6.78187e+06  i7 6.6667  iEMpd_timer 4.8000  iEMpd_1 3.5984E-08  iEMpd_2 7.7921E-08  iEMpd_3 1.6839E-08  iEMpd_4 4.8568E-08  iEMhp_timer 4.8000  iEMhp_1 4.9294E-06  iEMhp_2 -2.5609E-08  iEMhp_3 -2.3698E-08  iEMhp_4 -2.2820E-08
#      9776
 1.7416  70467.3  265.587
 1.9396  48377.8  220.346
 2.1376  35339.4  188.319
 2.3356  31699.6  177.983
 2.5336  29344.4  171.846
 2.7316  26805  164.334
 2.9296  25641.9  160.878
 3.1276  25305  159.37
 3.3256  24387  156.103
 3.5236  26255.7  161.929
 3.7216  23854.7  155.446
 3.9196  23365.1  153.041
 4.1176  23365.9  152.846
 4.3156  24274.4  155.952
 4.5136  26688.8  162.496
 4.7116  27597  166.378
 4.9096  27066.2  164.207
 5.1076  26835.5  164.094
 5.3056  27043  164.323
 5.5036  26457.8  162.576
 5.7016  26993.8  164.163
 5.8996  27390.2  164.6
 6.0976  28408.9  169.048
 6.2956  28366  168.258
 6.4936  29174.3  169.847
 6.6916  29466.6  171.676
 6.8896  30201.5  173.648
 7.0876  31704.8  178.592
 7.2856  30816.7  175.202
 7.4836  31197.2  175.638
 7.6816  31896  178.093
 7.8796  32516.6  179.828
 8.0776  33843.3  184.423
 8.2756  35597.5  187.784
 8.4736  36481.9  189.911
 8.6716  35216.7  187.194
 8.8696  36318.6  190.63
 9.0676  35329.4  187.346
 9.2656  34262.3  185.18
 9.4636  33108.9  180.525
 9.6616  32626.2  179.921
 9.8596  32203.9  178.216
 10.0576  29779.6  172.022
 10.2556  29081.6  170.438
 10.4536  28328.6  167.822
 10.6516  27913.9  166.798
 10.8496  26641.9  162.369
 11.0476  25453.3  158.666
 11.2456  25062.3  158.017
 11.4436  25333.6  158.062
 11.6416  25529.1  159.002
 11.8396  24015.3  154.427
 12.0376  23341.3  151.872
 12.2356  23175.1  151.782
 12.4336  23146.4  151.209
 12.6316  23017.7  151.06
 12.8296  23072.7  150.857
 13.0276  23536  152.564
 13.2256  23665  153.338
 13.4236  23539  152.708
 13.6216  23671.9  153.149
 13.8196  25967  159.807
 14.0176  22969.6  150.917
 14.2156  22684.2  149.032
 14.4136  21365.1  145.986
 14.6116  21156.2  144.476
 14.8096  20707.9  142.925
 15.0076  19681.8  143.175
 15.2056  18614.3  135.125
 15.4036  18039.8  133.833
 15.6016  17468.7  130.811
 15.7996  17054.7  129.516
 15.9976  16794.9  131.376
 16.1956  16410.2  127.801
 16.3936  16159.8  126.014
 16.5916  15897.8  125.632
 16.7896  15995  126.063
 16.9876  15687.3  126.267
 17.1856  15513  123.974
 17.3836  15088.4  122.183
 17.5816  14733.6  121.211
 17.7796  14458.6  120.004
 17.9776  14249  119.895
 18.1756  14232.6  118.591
 18.3736  14206.1  118.945
 18.5716  13845.3  117.191
 18.7696  13902.2  116.998
 18.9676  13704.9  115.977
 19.1656  13492.7  115.65
 19.3636  13378.4  115.344
 19.5616  13246.2  114.941
 19.7596  13587.8  115.828
 19.9576  13822.7  116.852
 20.1556  13925.8  117.806
 20.3536  13350.3  114.752
 20.5516  12932.1  113.381
 20.7496  12734.1  112.359
 20.9476  12724.2  112.169
 21.1456  12619.3  112.014
 21.3436  12390.4  110.949
 21.5416  12348.2  110.777
 21.7396  12344.7  110.602
 21.9376  12207.6  109.767
 22.1356  12225.5  109.994
 22.3336  11781.2  108.197
 22.5316  11990.7  109.264
 22.7296  12085  109.067
 22.9276  11814.8  108.495
 23.1256  12066.7  109.13
 23.3236  12388.3  111.161
 23.5216  12287.4  110.338
 23.7196  12258.2  110.389
 23.9176  12055.6  109.012
 24.1156  11920.7  108.837
 24.3136  11642.2  108.368
 24.5116  11645.5  107.902
 24.7096  11449.2  106.803
 24.9076  11172.1  105.546
 25.1056  10849.7  104.189
 25.3036  10722.7  103.361
 25.5016  10749.4  103.53
 25.6996  10642.4  102.602
 25.8976  10683.5  103.231
 26.0956  10446.7  102.087
 26.2936  10514.1  102.076
 26.4916  10791.6  103.277
 26.6896  10458.8  101.973
 26.8876  10446.1  101.769
 27.0856  10217  100.668
 27.2836  10088.4  100.123
 27.4816  9930.06  99.1128
 27.6796  9825.78  98.9465
 27.8776  10125.1  100.306
 28.0756  9754.3  98.7328
 28.2736  9823.48  98.6694
 28.4716  9508.94  97.1326
 28.6696  9698.12  97.9457
 28.8676  9510.54  97.3362
 29.0656  9396.46  96.7244
 29.2636  9476.82  96.86
 29.4616  9015.31  94.716
 29.6596  9114.51  94.8147
 29.8576  8962.6  94.6787
 30.0556  8927.97  94.3784
 30.2536  9011.49  94.6221
 30.4516  9214.25  95.3338
 30.6496  9254.65  95.2847
 30.8476  9193.66  95.3993
 31.0456  9171.42  95.259
 31.2436  9271.76  95.0502
 31.4416  8915.42  93.3813
 31.6396  8973.75  93.7283
 31.8376  9063.72  93.7394
 32.0356  8984.39  93.8756
 32.2336  8939.05  93.0606
 32.4316  8647.52  91.9155
 32.6296  8698.78  91.9511
 32.8276  8639.27  91.5061
 33.0256  8640.22  91.567
 33.2236  8548.42  91.2297
 33.4216  8627.97  91.3364
 33.6196  8577.49  91.3547
 33.8176  8501.3  91.1186
 34.0156  8297.36  89.6581
 34.2136  8495.4  90.7526
 34.4116  8258.84  89.6333
 34.6096  8391.78  90.2264
 34.8076  8195.99  89.5774
 35.0056  8112.97  88.7955
 35.2036  8464.53  90.937
 35.4016  8150.38  89.1366
 35.5996  8107.93  88.9497
 35.7976  8120.36  89.2777
 35.9956  8336.32  90.1116
 36.1936  8235.47  89.4068
 36.3916  8025.52  88.4658
 36.5896  8037.75  89.9673
 36.7876  7745.92  87.2633
 36.9856  7582.6  86.3538
 37.1836  7750.25  86.4448
 37.3816  7867.79  87.4558
 37.5796  7873.98  89.193
 37.7776  7925.77  87.8697
 37.9756  8069.14  88.5573
 38.1736  7927.42  87.9607
 38.3716  7738.2  87.1752
 38.5696  7729.36  87.4772
 38.7676  7645.95  86.541
 38.9656  7790.62  86.9864
 39.1636  7707.74  86.7658
 39.3616  7717.05  86.7741
 39.5596  7627.89  87.0973
 39.7576  7573.38  86.184
 39.9556  7634.82  86.1791
 40.1536  7707.96  86.7826
 40.3516  7609.6  86.3155
 40.5496  7675.93  86.6606
 40.7476  7786.82  87.492
 40.9456  7783.1  87.2288
 41.1436  7822.61  87.1797
 41.3416  7580.27  86.1369
 41.5396  7637.55  86.2769
 41.7376  7661.44  86.6657
 41.9356  7605.64  86.214
 42.1336  7776.94  87.3273
 42.3316  7540.78  86.1813
 42.5296  7696  86.5905
 42.7276  7589.67  86.2285
 42.9256  7733.71  86.9143
 43.1236  7567.74  86.0759
 43.3216  7567.23  85.9169
 43.5196  7505.88  85.5394
 43.7176  7537.84  86.1147
 43.9156  7412.77  85.3108
 44.1136  7226.94  83.7979
 44.3116  7243.6  83.9052
 44.5096  7244.65  84.2134
 44.7076  7356.19  84.7926
 44.9056  7474.43  85.3528
 45.1036  7322.48  84.1106
 45.3016  7225.85  84.0454
 45.4996  7443.67  85.2398
 45.6976  7248.26  84.2846
 45.8956  7292.75  84.3588
 46.0936  7394.44  84.7019
 46.2916  7292.24  84.3258
 46.4896  7469.77  85.3896
 46.6876  7077.46  83.8117
 46.8856  7206.79  83.9582
 47.0836  7179.24  83.9321
 47.2816  7144.87  83.6032
 47.4796  7146.1  83.7239
 47.6776  7213.77  85.0631
 47.8756  7219.04  84.276
 48.0736  7272.58  85.0193
 48.2716  7075.67  83.6932
 48.4696  7189.29  83.9443
 48.6676  7119.45  84.1467
 48.8656  7209.89  84.3919
 49.0636  7223.37  84.416
 49.2616  7056.8  83.4767
 49.4596  7052.99  83.0112
 49.6576  7107.27  83.5623
 49.8556  7102.29  83.5539
 50.0536  7026.99  83.5554
 50.2516  7103.26  84.121
 50.4496  7039.23  83.4191
 50.6476  7187.93  83.9768
 50.8456  7010.7  83.0147
 51.0436  6870.55  82.6234
 51.2416  6875.78  82.3307
 51.4396  6687.51  81.5891
 51.6376  6839.14  82.3306
 51.8356  6766.45  81.516
 52.0336  6932.11  83.04
 52.2316  6669.45  81.8064
 52.4296  6702.3  81.7067
 52.6276  6697.7  81.7866
 52.8256  6822.08  82.1033
 53.0236  6889.7  83.1549
 53.2216  6732.94  82.2082
 53.4196  6754.3  82.2848
 53.6176  6680.04  82.3265
 53.8156  6731.86  82.3042
 54.0136  6396.45  80.3913
 54.2116  6602.39  81.3075
 54.4096  6412.25  80.203
 54.6076  6420.22  80.5764
 54.8056  6355.96  79.9682
 55.0036  6450.97  80.8432
 55.2016  6312.26  79.535
 55.3996  6149.24  78.5724
 55.5976  6323.52  79.8824
 55.7956  6202.36  78.9084
 55.9936  6353.28  79.9992
 56.1916  6129.25  78.6069
 56.3896  6110.9  78.4584
 56.5876  6124.29  79.1047
 56.7856  6166.64  78.879
 56.9836  6192.89  78.8291
 57.1816  6239.76  79.489
 57.3796  6003.95  77.7449
 57.5776  6137.11  78.531
 57.7756  5955  78.0162
 57.9736  5990.9  77.9135
 58.1716  5947.42  77.8925
 58.3696  5750.67  76.3632
 58.5676  5717.16  75.624
 58.7656  5748.42  76.4927
 58.9636  5721.56  76.3451
 59.1616  5794.9  76.9612
 59.3596  5744.43  75.9044
 59.5576  5797.35  76.3084
 59.7556  5701.12  76.0788
 59.9536  5812.62  76.72
 60.1516  5738.71  77.058
 60.1996  0.0000000E+00  0.0000000E+00

File: 17_Db_f00032.xye
# /beamlines/bl04/projects/cycle2025-II/20250340211-lsimonelli/DATA/IS17_D/17_Db_f00032.xye : mythproc.py merge -s 0.006 -l 0.5 -f /beamlines/bl04/inhouse/ff/FlatField/ff_20Nov2024rod8mm60s_17keV.raw -b True -c true -o xye /beamlines/bl04/projects/cycle2025-II/20250340211-lsimonelli/DATA/IS17_D/17_Db_00032.dat
# IsMon = [6788482, 6786635, 6790753]  IsPos = [-1.5000, -2.4885, -3.4986]
# Wave = 0.4962  CalPath /beamlines/bl04/projects/cycle2025-II/20250340211-lsimonelli/DATA/Align/Si_Pos1_25keV_f00001.cal
# Date = 2025-09-24_02:37:44 Dt = 4.8000  Bin = 0.0060  <imon> = 6788623 +/- 1684 (Min/Max) 6786635 / 6790753
# icurr 253.1984  mocoIn 1.7270E-05  mocoOut 0.8106  i15 7.11106e+06  imon 6.78862e+06  i7 4.6667  iEMpd_timer 4.8000  iEMpd_1 3.6277E-08  iEMpd_2 7.6979E-08  iEMpd_3 1.6225E-08  iEMpd_4 4.8222E-08  iEMhp_timer 4.8000  iEMhp_1 4.9458E-06  iEMhp_2 -2.6216E-08  iEMhp_3 -2.3424E-08  iEMhp_4 -2.1164E-08
#      9776
 1.7416  70677.9  265.932
 1.9396  49092.8  221.922
 2.1376  35316.6  188.222
 2.3356  31754.4  178.102
 2.5336  29603.5  172.57
 2.7316  27084.4  165.193
 2.9296  26121.1  162.386
 3.1276  25362.2  159.538
 3.3256  24545.9  156.621
 3.5236  26328.3  162.153
 3.7216  23916.3  155.642
 3.9196  23526.8  153.577
 4.1176  23316  152.676
 4.3156  24415  156.405
 4.5136  26794.5  162.831
 4.7116  27772.7  166.911
 4.9096  27136.3  164.412
 5.1076  27061.1  164.776
 5.3056  27263  164.989
 5.5036  26457.8  162.571
 5.7016  27132  164.585
 5.8996  27636.1  165.337
 6.0976  28496.9  169.297
 6.2956  28481.8  168.609
 6.4936  29139.2  169.738
 6.6916  29522  171.834
 6.8896  30192.3  173.625
 7.0876  31594  178.266
 7.2856  30943.2  175.573
 7.4836  31178.4  175.577
 7.6816  32232.9  179.037
 7.8796  32294.7  179.223
 8.0776  34198.3  185.405
 8.2756  35826.6  188.394
 8.4736  36210.2  189.221
 8.6716  35593.2  188.224
 8.8696  36192.7  190.274
 9.0676  35485.4  187.728
 9.2656  34342.6  185.373
 9.4636  33430.1  181.381
 9.6616  32732.2  180.19
 9.8596  32045.7  177.779
 10.0576  29888.1  172.339
 10.2556  29215.6  170.837
 10.4536  28399.9  168.034
 10.6516  28039.2  167.176
 10.8496  26638.7  162.358
 11.0476  25587.8  159.102
 11.2456  24954.5  157.69
 11.4436  25366.8  158.167
 11.6416  25676.6  159.462
 11.8396  24083.7  154.64
 12.0376  23426  152.151
 12.2356  23179.4  151.803
 12.4336  23236.4  151.504
 12.6316  23147.4  151.474
 12.8296  23191.6  151.242
 13.0276  23372  152.038
 13.2256  23842.7  153.912
 13.4236  23521.9  152.657
 13.6216  24032.2  154.297
 13.8196  26220.1  160.606
 14.0176  23043.9  151.171
 14.2156  22648.2  148.905
 14.4136  21504.9  146.462
 14.6116  21325.6  145.052
 14.8096  20650  142.715
 15.0076  19639.5  143.017
 15.2056  18846.1  135.975
 15.4036  17902.7  133.337
 15.6016  17571.5  131.207
 15.7996  17190.5  130.039
 15.9976  16867.1  131.674
 16.1956  16471.5  128.029
 16.3936  16256  126.378
 16.5916  16171.6  126.685
 16.7896  15955.9  125.899
 16.9876  15741.4  126.493
 17.1856  15557.1  124.162
 17.3836  15300.2  123.042
 17.5816  14905.1  121.912
 17.7796  14583.3  120.523
 17.9776  14309.9  120.139
 18.1756  14293.4  118.841
 18.3736  14018.8  118.168
 18.5716  13970.1  117.714
 18.7696  13941.8  117.177
 18.9676  13630.3  115.657
 19.1656  13435.6  115.399
 19.3636  13381.2  115.366
 19.5616  13424.6  115.713
 19.7596  13678.3  116.206
 19.9576  13673.9  116.241
 20.1556  14072.1  118.434
 20.3536  13295.2  114.517
 20.5516  13013.8  113.726
 20.7496  12853.3  112.878
 20.9476  12820.6  112.585
 21.1456  12606.4  111.962
 21.3436  12491.2  111.403
 21.5416  12417.3  111.085
 21.7396  12109.1  109.544
 21.9376  12172.5  109.603
 22.1356  12298.6  110.32
 22.3336  11895.4  108.732
 22.5316  11831.6  108.548
 22.7296  11942.5  108.433
 22.9276  11822.5  108.54
 23.1256  12173.6  109.625
 23.3236  12352.9  110.987
 23.5216  12106.1  109.507
 23.7196  12289.4  110.511
 23.9176  12267  109.945
 24.1156  11943.4  108.933
 24.3136  11629.2  108.306
 24.5116  11781.7  108.535
 24.7096  11349.3  106.344
 24.9076  11193.9  105.646
 25.1056  10989.2  104.866
 25.3036  10731.5  103.402
 25.5016  10622  102.915
 25.6996  10685.8  102.807
 25.8976  10704.5  103.33
 26.0956  10601.1  102.837
 26.2936  10517.4  102.101
 26.4916  10882.6  103.719
 26.6896  10398.5  101.684
 26.8876  10335.8  101.232
 27.0856  10156.2  100.371
 27.2836  9994.7  99.6498
 27.4816  10011.9  99.5237
 27.6796  9924.26  99.4441
 27.8776  10032  99.841
 28.0756  9788.05  98.9071
 28.2736  9668.72  97.8981
 28.4716  9572.36  97.4573
 28.6696  9702.15  97.9552
 28.8676  9510.28  97.3342
 29.0656  9361.31  96.5441
 29.2636  9487.95  96.9111
 29.4616  9056.21  94.938
 29.6596  9114.78  94.8252
 29.8576  9005.85  94.9227
 30.0556  9066.98  95.1207
 30.2536  9087.24  95.0295
 30.4516  9215.41  95.3265
 30.6496  9074.79  94.3437
 30.8476  9216.7  95.499
 31.0456  9199.3  95.3877
 31.2436  9256.57  94.9582
 31.4416  9050.23  94.0824
 31.6396  9043.72  94.0863
 31.8376  9148.2  94.1595
 32.0356  9064.41  94.2861
 32.2336  8945.87  93.0927
 32.4316  8681.14  92.0984
 32.6296  8660.93  91.7571
 32.8276  8691.26  91.7783
 33.0256  8678.42  91.7685
 33.2236  8636.29  91.6879
 33.4216  8547.04  90.9065
 33.6196  8547.02  91.1995
 33.8176  8547.91  91.3741
 34.0156  8450.44  90.4788
 34.2136  8564.86  91.1113
 34.4116  8263.97  89.664
 34.6096  8304.59  89.7575
 34.8076  8177.22  89.4798
 35.0056  8320.62  89.9298
 35.2036  8492.87  91.0826
 35.4016  8185.69  89.3254
 35.5996  8084.03  88.8157
 35.7976  8168.2  89.5341
 35.9956  8349.18  90.1736
 36.1936  8188.07  89.1627
 36.3916  8065.81  88.6875
 36.5896  8070.17  90.1417
 36.7876  7772.55  87.4205
 36.9856  7620.35  86.59
 37.1836  7728.69  86.3327
 37.3816  7814.76  87.1635
 37.5796  7894.43  89.3072
 37.7776  7915.97  87.8048
 37.9756  7970.01  87.9965
 38.1736  7941.21  88.0236
 38.3716  7826.65  87.6632
 38.5696  7761.83  87.6695
 38.7676  7692.37  86.8036
 38.9656  7714.96  86.5585
 39.1636  7713.57  86.7943
 39.3616  7791.57  87.198
 39.5596  7578.74  86.8161
 39.7576  7674.99  86.7612
 39.9556  7663.41  86.3385
 40.1536  7815.93  87.3802
 40.3516  7685.38  86.7421
 40.5496  7778.53  87.24
 40.7476  7780.51  87.459
 40.9456  7773.26  87.1763
 41.1436  7769.08  86.8691
 41.3416  7598.65  86.2489
 41.5396  7591.02  86.0134
 41.7376  7675.75  86.7458
 41.9356  7652.11  86.4641
 42.1336  7840.64  87.6746
 42.3316  7599.72  86.5231
 42.5296  7681.45  86.5089
 42.7276  7679.71  86.7332
 42.9256  7614.27  86.2454
 43.1236  7592.19  86.2139
 43.3216  7546.56  85.8151
 43.5196  7530.02  85.6732
 43.7176  7528.71  86.0602
 43.9156  7257  84.4138
 44.1136  7244.3  83.9066
 44.3116  7453.66  85.1151
 44.5096  7389.11  85.0592
 44.7076  7276.97  84.3364
 44.9056  7492.64  85.4451
 45.1036  7490.76  85.0506
 45.3016  7286.78  84.3827
 45.4996  7333.55  84.5984
 45.6976  7271.9  84.4157
 45.8956  7358.74  84.7444
 46.0936  7415.6  84.8326
 46.2916  7373.32  84.8061
 46.4896  7409.09  85.0294
 46.6876  7338.72  85.3551
 46.8856  7238.98  84.1401
 47.0836  7286.6  84.5576
 47.2816  7196.13  83.9152
 47.4796  7303.39  84.6384
 47.6776  7055.84  84.1297
 47.8756  7262.52  84.5281
 48.0736  7308.11  85.2229
 48.2716  7135.88  84.0464
 48.4696  7259.15  84.3675
 48.6676  7213.08  84.6876
 48.8656  7188.97  84.2795
 49.0636  7293.13  84.8226
 49.2616  7101.17  83.7442
 49.4596  7202.61  83.897
 49.6576  7118.91  83.6302
 49.8556  7110.69  83.6081
 50.0536  7038.39  83.6309
 50.2516  7074.09  83.9437
 50.4496  7048.67  83.4814
 50.6476  7100.15  83.4595
 50.8456  7128.54  83.7104
 51.0436  6909.76  82.8649
 51.2416  6844.07  82.1366
 51.4396  6681.93  81.5619
 51.6376  6858.56  82.4596
 51.8356  6846  82.0073
 52.0336  6867.32  82.638
 52.2316  6817.6  82.699
 52.4296  6705.04  81.7146
 52.6276  6673.75  81.6248
 52.8256  6920.89  82.6866
 53.0236  6817.59  82.7165
 53.2216  6740.16  82.2658
 53.4196  6762.51  82.3247
 53.6176  6828.96  83.231
 53.8156  6623.51  81.6484
 54.0136  6465.29  80.8291
 54.2116  6601.29  81.3041
 54.4096  6468.53  80.5608
 54.6076  6448.98  80.776
 54.8056  6362.51  80.0235
 55.0036  6506.42  81.1765
 55.2016  6394.64  80.0776
 55.3996  6264.12  79.3025
 55.5976  6341.82  79.9904
 55.7956  6284.59  79.433
 55.9936  6377.75  80.1319
 56.1916  6287.11  79.626
 56.3896  6077.73  78.2647
 56.5876  6110.23  78.9971
 56.7856  6149.34  78.7761
 56.9836  6223.69  79.012
 57.1816  6260.32  79.6123
 57.3796  6114.74  78.4629
 57.5776  6223.29  79.0587
 57.7756  6019.17  78.4318
 57.9736  6025.35  78.1568
 58.1716  5894.68  77.5516
 58.3696  5807.2  76.7486
 58.5676  5775.03  76.016
 58.7656  5730.83  76.3831
 58.9636  5766.5  76.651
 59.1616  5762.94  76.7495
 59.3596  5751.49  75.9446
 59.5576  5852.26  76.6636
 59.7556  5728.88  76.2584
 59.9536  5784.17  76.5266
 60.1516  5642.28  76.4025
 60.1996  0.0000000E+00  0.0000000E+00