Folder: echemistpy/docs/examples/opeando_xrd/IS17_D/Data/IS17_D (part 78)

File: 17_Db_f00045.xye
# /beamlines/bl04/projects/cycle2025-II/20250340211-lsimonelli/DATA/IS17_D/17_Db_f00045.xye : mythproc.py merge -s 0.006 -l 0.5 -f /beamlines/bl04/inhouse/ff/FlatField/ff_20Nov2024rod8mm60s_17keV.raw -b True -c true -o xye /beamlines/bl04/projects/cycle2025-II/20250340211-lsimonelli/DATA/IS17_D/17_Db_00045.dat
# IsMon = [6749718, 6748208, 6746329]  IsPos = [-1.5000, -2.4885, -3.4988]
# Wave = 0.4962  CalPath /beamlines/bl04/projects/cycle2025-II/20250340211-lsimonelli/DATA/Align/Si_Pos1_25keV_f00001.cal
# Date = 2025-09-24_06:12:36 Dt = 4.8000  Bin = 0.0060  <imon> = 6748085 +/- 1386 (Min/Max) 6746329 / 6749718
# icurr 249.4967  mocoIn 1.7021E-05  mocoOut 0.7986  i15 7.06977e+06  imon 6.74808e+06  i7 3.3333  iEMpd_timer 4.8000  iEMpd_1 3.5229E-08  iEMpd_2 7.8803E-08  iEMpd_3 1.5914E-08  iEMpd_4 4.9310E-08  iEMhp_timer 4.8000  iEMhp_1 4.8743E-06  iEMhp_2 -2.5315E-08  iEMhp_3 -2.2826E-08  iEMhp_4 -2.1044E-08
#      9776
 1.7416  71299.8  267.065
 1.9396  49679.5  223.217
 2.1376  37002.4  192.637
 2.3356  33207.3  182.107
 2.5336  31175.9  177.07
 2.7316  28576.3  169.657
 2.9296  27423.5  166.363
 3.1276  26839.8  164.108
 3.3256  25656  160.106
 3.5236  27333.5  165.199
 3.7216  24970.8  159.049
 3.9196  24356.7  156.27
 4.1176  24153.7  155.394
 4.3156  25012.7  158.31
 4.5136  27424.5  164.725
 4.7116  28289.9  168.454
 4.9096  27679.1  166.053
 5.1076  27423.6  165.873
 5.3056  27158.7  164.804
 5.5036  27053.6  164.469
 5.7016  27228.2  164.876
 5.8996  27964.8  166.312
 6.0976  28671.8  169.815
 6.2956  28992.7  170.118
 6.4936  29703.5  171.378
 6.6916  30066.9  173.415
 6.8896  30898.7  175.648
 7.0876  32310.6  180.273
 7.2856  31918.5  178.313
 7.4836  32380.4  178.939
 7.6816  33108  181.46
 7.8796  33811.6  183.396
 8.0776  35269.2  188.3
 8.2756  37132.1  191.821
 8.4736  37376.8  192.257
 8.6716  36902.5  191.653
 8.8696  37922  194.783
 9.0676  36899.5  191.458
 9.2656  36051.4  189.941
 9.4636  34820.6  185.141
 9.6616  33798.1  183.132
 9.8596  33341.1  181.308
 10.0576  31140.5  175.893
 10.2556  30078.3  173.315
 10.4536  29199.7  170.351
 10.6516  28417.9  168.278
 10.8496  27169.8  163.971
 11.0476  26228.3  161.07
 11.2456  25764.3  160.219
 11.4436  25638.2  159.01
 11.6416  27127.5  163.908
 11.8396  25143.6  158.003
 12.0376  24328.7  155.057
 12.2356  24070.7  154.692
 12.4336  24072.8  154.216
 12.6316  23806.6  153.614
 12.8296  23811.8  153.256
 13.0276  24349  155.186
 13.2256  24885.3  157.249
 13.4236  24788.2  156.711
 13.6216  24843.8  156.87
 13.8196  27012.9  163.032
 14.0176  23922.3  154.026
 14.2156  23684.2  152.285
 14.4136  22515.6  149.864
 14.6116  22146.1  147.824
 14.8096  21461.3  145.509
 15.0076  20408.6  145.779
 15.2056  19496.1  138.312
 15.4036  18564.7  135.791
 15.6016  18273.1  133.81
 15.7996  17737  132.111
 15.9976  17528.5  134.217
 16.1956  16983.3  129.984
 16.3936  16636  127.861
 16.5916  16313.5  127.256
 16.7896  16444.4  127.81
 16.9876  16171.7  128.205
 17.1856  16162.9  126.541
 17.3836  15980.9  125.731
 17.5816  15391.2  123.873
 17.7796  14967.9  122.086
 17.9776  14466.6  120.798
 18.1756  14485.6  119.64
 18.3736  14169.3  118.8
 18.5716  14092.4  118.237
 18.7696  14153.4  118.053
 18.9676  14002.2  117.227
 19.1656  13739.7  116.705
 19.3636  13689.3  116.682
 19.5616  13577.8  116.372
 19.7596  13883.1  117.072
 19.9576  13959.6  117.441
 20.1556  14420  119.9
 20.3536  14514.9  119.659
 20.5516  13647.6  116.469
 20.7496  13329.7  114.949
 20.9476  13070.1  113.676
 21.1456  13031.3  113.833
 21.3436  12941  113.383
 21.5416  12695.9  112.324
 21.7396  12703.7  112.201
 21.9376  12618.9  111.604
 22.1356  12819.4  112.754
 22.3336  12383.7  110.948
 22.5316  12337  110.849
 22.7296  12462.2  110.775
 22.9276  12428.8  111.297
 23.1256  12285.2  110.138
 23.3236  12728.7  112.672
 23.5216  12742.5  112.365
 23.7196  12582.9  111.824
 23.9176  12509.6  111.034
 24.1156  12421.7  111.107
 24.3136  12058.7  110.27
 24.5116  12064.2  109.817
 24.7096  11660.7  107.777
 24.9076  11576.9  107.411
 25.1056  11300.2  106.327
 25.3036  11029.3  104.83
 25.5016  10940.9  104.445
 25.6996  11109.6  104.833
 25.8976  10948.1  104.496
 26.0956  10867.7  104.123
 26.2936  10912.7  103.999
 26.4916  11197.1  105.215
 26.6896  10711.9  103.202
 26.8876  10787.5  103.414
 27.0856  10497.1  102.041
 27.2836  10407.4  101.533
 27.4816  10258.3  100.734
 27.6796  10242  101.029
 27.8776  10368.5  101.496
 28.0756  10083  100.391
 28.2736  10065.2  99.8831
 28.4716  9948.9  99.3564
 28.6696  9910.11  99.009
 28.8676  9826.27  98.9409
 29.0656  9671.27  98.1271
 29.2636  9840.06  98.6924
 29.4616  9412.61  96.7962
 29.6596  9368.81  96.1428
 29.8576  9288.99  96.4093
 30.0556  9239.74  96.0354
 30.2536  9307.46  96.1804
 30.4516  9471.24  96.6577
 30.6496  9467.82  96.378
 30.8476  9316.32  96.0366
 31.0456  9597.66  97.4343
 31.2436  9513.84  96.2715
 31.4416  9317.12  95.4492
 31.6396  9198.95  94.8837
 31.8376  9392.51  95.3965
 32.0356  9332.02  95.6479
 32.2336  9176.65  94.2664
 32.4316  8893.38  93.2158
 32.6296  9047.81  93.7907
 32.8276  9025.3  93.5259
 33.0256  8860.26  92.733
 33.2236  8935.92  93.2621
 33.4216  8871.48  92.6239
 33.6196  8828.94  92.6908
 33.8176  8874.68  93.0991
 34.0156  8725.1  91.9379
 34.2136  8824.14  92.4797
 34.4116  8634.39  91.6525
 34.6096  8667.22  91.7011
 34.8076  8590.44  91.7109
 35.0056  8466.16  90.7188
 35.2036  8796.54  92.6942
 35.4016  8519.58  91.1471
 35.5996  8461.11  90.8626
 35.7976  8281.97  90.1595
 35.9956  8575.36  91.3942
 36.1936  8406.55  90.3445
 36.3916  8330.38  90.1279
 36.5896  8415.17  92.0481
 36.7876  8079.84  89.1396
 36.9856  8027.92  88.8781
 37.1836  8004.43  87.8634
 37.3816  8030.12  88.3676
 37.5796  8081.15  90.3595
 37.7776  8258  89.695
 37.9756  8111.79  88.775
 38.1736  8166.59  89.2797
 38.3716  8099.92  89.1783
 38.5696  7924  88.5781
 38.7676  7969.2  88.338
 38.9656  7963.8  87.9401
 39.1636  8109.79  88.9867
 39.3616  7961.63  88.133
 39.5596  7762.02  87.8569
 39.7576  7858.34  87.789
 39.9556  7970.42  88.0513
 40.1536  8056.68  88.7191
 40.3516  7914.21  87.9511
 40.5496  7928.06  88.0647
 40.7476  7968.43  88.5068
 40.9456  8034.3  88.6177
 41.1436  8154.46  88.9987
 41.3416  7889.22  87.8851
 41.5396  7890.22  87.6983
 41.7376  7860.3  87.7891
 41.9356  7809.69  87.3573
 42.1336  8009.05  88.6045
 42.3316  7788.81  87.5967
 42.5296  7838.72  87.388
 42.7276  7912.63  88.0472
 42.9256  7796.76  87.2686
 43.1236  7751.45  87.1188
 43.3216  7863.98  87.6
 43.5196  7771.41  87.0436
 43.7176  7738.23  87.2479
 43.9156  7517.26  85.9213
 44.1136  7566.53  85.755
 44.3116  7615.84  86.0453
 44.5096  7665.8  86.6425
 44.7076  7635.14  86.3986
 44.9056  7662.55  86.4154
 45.1036  7628.61  85.8458
 45.3016  7604.21  86.204
 45.4996  7526.31  85.7053
 45.6976  7490.64  85.6879
 45.8956  7570.36  85.9381
 46.0936  7641.38  86.0941
 46.2916  7615.86  86.1833
 46.4896  7597.61  86.1124
 46.6876  7533.52  86.4639
 46.8856  7481.28  85.4328
 47.0836  7435.3  85.4191
 47.2816  7330.17  84.6922
 47.4796  7453.71  85.4997
 47.6776  7285.3  85.4893
 47.8756  7375.38  85.1754
 48.0736  7508.75  86.4156
 48.2716  7311.33  85.0818
 48.4696  7477.49  85.6289
 48.6676  7469.83  86.1869
 48.8656  7427.64  85.6582
 49.0636  7445.29  85.7026
 49.2616  7271.81  84.7492
 49.4596  7439.15  85.2581
 49.6576  7214.18  84.1946
 49.8556  7299.96  84.7131
 50.0536  7408.34  85.7993
 50.2516  7296.19  85.2544
 50.4496  7261.99  84.73
 50.6476  7330.81  84.8057
 50.8456  7226.04  84.2721
 51.0436  7113.75  84.0872
 51.2416  7083.93  83.5803
 51.4396  6927.91  83.0594
 51.6376  6972.27  83.1443
 51.8356  7137.2  83.7373
 52.0336  7155.15  84.3566
 52.2316  6971.41  83.6241
 52.4296  6964.5  83.2935
 52.6276  6938.06  83.2422
 52.8256  7004.01  83.1867
 53.0236  7033.44  84.0049
 53.2216  6888.48  83.1536
 53.4196  6929.65  83.3138
 53.6176  6993.84  84.226
 53.8156  6930.57  83.5021
 54.0136  6715.95  82.3877
 54.2116  6904.83  83.147
 54.4096  6691.26  81.938
 54.6076  6698.1  82.306
 54.8056  6470.21  80.6948
 55.0036  6753.1  82.7037
 55.2016  6506.32  80.743
 55.3996  6508.48  80.8411
 55.5976  6520.09  81.1031
 55.7956  6482.52  80.6742
 55.9936  6671.92  81.9807
 56.1916  6492.02  80.9136
 56.3896  6311.21  79.7525
 56.5876  6309.14  80.2819
 56.7856  6369.8  80.1705
 56.9836  6432.85  80.3321
 57.1816  6452.42  80.8222
 57.3796  6314.45  79.7825
 57.5776  6276.57  79.4239
 57.7756  6181.73  79.4942
 57.9736  6208.36  79.317
 58.1716  6129  79.0892
 58.3696  5992.25  77.9626
 58.5676  6056.81  77.8416
 58.7656  6035.16  78.39
 58.9636  5998.89  78.18
 59.1616  5961.13  78.0668
 59.3596  6059.09  77.9722
 59.5576  6049.78  77.969
 59.7556  6052.32  78.4041
 59.9536  6080.82  78.487
 60.1516  6028.26  78.9952
 60.1996  0.0000000E+00  0.0000000E+00

File: 17_Db_f00046.xye
# /beamlines/bl04/projects/cycle2025-II/20250340211-lsimonelli/DATA/IS17_D/17_Db_f00046.xye : mythproc.py merge -s 0.006 -l 0.5 -f /beamlines/bl04/inhouse/ff/FlatField/ff_20Nov2024rod8mm60s_17keV.raw -b True -c true -o xye /beamlines/bl04/projects/cycle2025-II/20250340211-lsimonelli/DATA/IS17_D/17_Db_00046.dat
# IsMon = [6754748, 6751104, 6758913]  IsPos = [-1.4999, -2.4885, -3.4986]
# Wave = 0.4962  CalPath /beamlines/bl04/projects/cycle2025-II/20250340211-lsimonelli/DATA/Align/Si_Pos1_25keV_f00001.cal
# Date = 2025-09-24_06:31:32 Dt = 4.8000  Bin = 0.0060  <imon> = 6754922 +/- 3190 (Min/Max) 6751104 / 6758913
# icurr 249.7557  mocoIn 1.7050E-05  mocoOut 0.7994  i15 7.07526e+06  imon 6.75492e+06  i7 7.6667  iEMpd_timer 4.8000  iEMpd_1 3.4406E-08  iEMpd_2 7.8012E-08  iEMpd_3 1.6738E-08  iEMpd_4 4.9814E-08  iEMhp_timer 4.8000  iEMhp_1 4.8795E-06  iEMhp_2 -2.4785E-08  iEMhp_3 -2.3267E-08  iEMhp_4 -2.0525E-08
#      9776
 1.7416  71889.6  268.203
 1.9396  49599.9  223.069
 2.1376  36881.7  192.347
 2.3356  33575.6  183.139
 2.5336  30918.8  176.362
 2.7316  28471.3  169.382
 2.9296  27289.9  165.992
 3.1276  26817.6  164.058
 3.3256  25707.3  160.299
 3.5236  27157.8  164.705
 3.7216  24857.1  158.68
 3.9196  24275.7  156.006
 4.1176  24074.8  155.142
 4.3156  25058.5  158.448
 4.5136  27350.8  164.517
 4.7116  28407.3  168.802
 4.9096  27567.5  165.719
 5.1076  27228.9  165.283
 5.3056  27487.4  165.678
 5.5036  26870.3  163.829
 5.7016  27422.1  165.462
 5.8996  27900.1  166.121
 6.0976  28854.2  170.362
 6.2956  28958.3  170.014
 6.4936  29818.1  171.711
 6.6916  29931.4  173.026
 6.8896  30886.9  175.61
 7.0876  31966.1  179.41
 7.2856  31892  178.241
 7.4836  32297.5  178.709
 7.6816  32963.4  181.065
 7.8796  33811.2  183.38
 8.0776  35442.7  188.748
 8.2756  37070.2  191.63
 8.4736  37472.3  192.489
 8.6716  36873  191.586
 8.8696  37266.4  193.063
 9.0676  36735.4  191.003
 9.2656  35948.9  189.654
 9.4636  34751.7  184.913
 9.6616  34053.2  183.778
 9.8596  33232.9  181.064
 10.0576  31239.2  176.228
 10.2556  30399  174.274
 10.4536  29094.2  170.097
 10.6516  28585  168.809
 10.8496  27172.3  163.97
 11.0476  26176.4  160.925
 11.2456  25564.4  159.605
 11.4436  25534.6  158.687
 11.6416  27012.6  163.559
 11.8396  25042.3  157.695
 12.0376  24345.1  155.11
 12.2356  24015  154.513
 12.4336  23992.6  153.962
 12.6316  23894.3  153.906
 12.8296  23829.8  153.309
 13.0276  24267.8  154.924
 13.2256  24870  157.202
 13.4236  24772  156.658
 13.6216  24761.9  156.623
 13.8196  27003.8  163.002
 14.0176  23882  153.892
 14.2156  23418.1  151.423
 14.4136  22443.2  149.628
 14.6116  22162.3  147.879
 14.8096  21243.6  144.76
 15.0076  20363.8  145.641
 15.2056  19648.2  138.835
 15.4036  18626  136.011
 15.6016  18345  134.063
 15.7996  17717.4  132.012
 15.9976  17446.9  133.899
 16.1956  16994.2  130.024
 16.3936  16687.3  128.03
 16.5916  16402  127.578
 16.7896  16370.9  127.512
 16.9876  16163.1  128.177
 17.1856  16200.5  126.712
 17.3836  15854.7  125.258
 17.5816  15241.6  123.294
 17.7796  15030.7  122.366
 17.9776  14512.1  120.986
 18.1756  14483.4  119.629
 18.3736  14241  119.104
 18.5716  14198.4  118.672
 18.7696  14156.8  118.072
 18.9676  14053.7  117.434
 19.1656  13652.6  116.324
 19.3636  13657.2  116.552
 19.5616  13609.6  116.509
 19.7596  13993.1  117.544
 19.9576  13897.6  117.182
 20.1556  14448.1  120.015
 20.3536  14392  119.148
 20.5516  13584.6  116.206
 20.7496  13312.7  114.979
 20.9476  13155.8  114.051
 21.1456  12908.9  113.296
 21.3436  12872.8  113.081
 21.5416  12905.4  113.247
 21.7396  12703.8  112.201
 21.9376  12648.9  111.734
 22.1356  12617  111.596
 22.3336  12417.5  111.092
 22.5316  12340.4  110.855
 22.7296  12356.3  110.296
 22.9276  12327.4  110.834
 23.1256  12422  110.73
 23.3236  12638.8  112.257
 23.5216  12692.1  112.119
 23.7196  12624.2  111.782
 23.9176  12509.3  111.02
 24.1156  12293.5  110.518
 24.3136  12009.2  110.068
 24.5116  12108.9  110.04
 24.7096  11673.7  107.857
 24.9076  11460.3  106.892
 25.1056  11134.3  105.567
 25.3036  11028.1  104.831
 25.5016  11093.7  105.175
 25.6996  11005.8  104.336
 25.8976  10905.2  104.291
 26.0956  10757.1  103.585
 26.2936  10807.1  103.504
 26.4916  11051.2  104.519
 26.6896  10778.1  103.527
 26.8876  10629.5  102.664
 27.0856  10441.2  101.773
 27.2836  10346.1  101.385
 27.4816  10308.9  100.993
 27.6796  10255.2  101.091
 27.8776  10453.9  101.916
 28.0756  10012.8  100.037
 28.2736  10101.1  100.057
 28.4716  9830.63  98.7678
 28.6696  9824.67  98.5845
 28.8676  9768.06  98.6445
 29.0656  9677.01  98.1587
 29.2636  9792.08  98.4531
 29.4616  9420.94  96.8312
 29.6596  9415.91  96.3777
 29.8576  9198.55  95.9319
 30.0556  9271.36  96.1868
 30.2536  9398.35  96.642
 30.4516  9621.11  97.4007
 30.6496  9417.68  96.0975
 30.8476  9462.9  96.7792
 31.0456  9533.86  97.1072
 31.2436  9571.59  96.56
 31.4416  9341.12  95.5944
 31.6396  9434.32  96.1175
 31.8376  9427.89  95.5968
 32.0356  9259.32  95.3164
 32.2336  9148.79  94.1489
 32.4316  8951.37  93.5238
 32.6296  8985.25  93.4579
 32.8276  9026.1  93.5285
 33.0256  8759.68  92.1952
 33.2236  8925.91  93.2192
 33.4216  8826.67  92.3899
 33.6196  8813.67  92.6223
 33.8176  8845.34  92.9532
 34.0156  8813.46  92.4028
 34.2136  8828.5  92.5032
 34.4116  8522.5  91.0568
 34.6096  8592.97  91.3015
 34.8076  8516.63  91.3178
 35.0056  8446.48  90.6065
 35.2036  8780.5  92.6089
 35.4016  8554.76  91.3254
 35.5996  8493.59  91.0373
 35.7976  8435.49  90.9944
 35.9956  8649.34  91.7858
 36.1936  8481.35  90.7376
 36.3916  8248.09  89.6793
 36.5896  8346.99  91.6782
 36.7876  8114.46  89.3213
 36.9856  8070.7  89.1079
 37.1836  8125.58  88.5173
 37.3816  8021.5  88.3054
 37.5796  8106.5  90.5007
 37.7776  8146.89  89.0811
 37.9756  8201.22  89.2593
 38.1736  8227.84  89.5987
 38.3716  8124.78  89.2979
 38.5696  7969.45  88.8402
 38.7676  7951.73  88.2634
 38.9656  8109.29  88.7578
 39.1636  8069.89  88.7896
 39.3616  7941.15  88.0441
 39.5596  7827.04  88.2206
 39.7576  7929.1  88.1838
 39.9556  7899.76  87.6605
 40.1536  8049.64  88.6798
 40.3516  7877.19  87.8229
 40.5496  7996.29  88.4519
 40.7476  7992.98  88.6438
 40.9456  8015.03  88.5242
 41.1436  8161.21  89.0416
 41.3416  7857.51  87.7037
 41.5396  7820.88  87.3036
 41.7376  8035.74  88.7575
 41.9356  7800.3  87.3087
 42.1336  7931.99  88.1787
 42.3316  7750.58  87.3791
 42.5296  7820.97  87.2819
 42.7276  8006.85  88.5652
 42.9256  7843.54  87.5274
 43.1236  7835.34  87.5914
 43.3216  7813.83  87.3195
 43.5196  7726.91  86.7948
 43.7176  7813.48  87.6657
 43.9156  7649.71  86.6691
 44.1136  7633.17  86.1289
 44.3116  7658.9  86.2792
 44.5096  7465.3  85.4969
 44.7076  7674.03  86.6128
 44.9056  7682.26  86.514
 45.1036  7738.67  86.4506
 45.3016  7594.04  86.1441
 45.4996  7594.27  86.0829
 45.6976  7360.17  84.9177
 45.8956  7574.63  85.9829
 46.0936  7665.42  86.5002
 46.2916  7568.45  85.9353
 46.4896  7519.78  85.6806
 46.6876  7393.11  85.6732
 46.8856  7431.02  85.255
 47.0836  7385.3  85.1321
 47.2816  7441.75  85.3398
 47.4796  7536.55  85.979
 47.6776  7358.4  85.9108
 47.8756  7346.14  85.0126
 48.0736  7490.06  86.2875
 48.2716  7338.78  85.242
 48.4696  7461.78  85.544
 48.6676  7416.81  85.8759
 48.8656  7389.98  85.4432
 49.0636  7344.13  85.127
 49.2616  7239.94  84.5628
 49.4596  7365.56  84.8253
 49.6576  7298.5  84.6688
 49.8556  7319.67  84.8264
 50.0536  7289.83  85.1087
 50.2516  7265.57  85.0777
 50.4496  7319.69  85.0691
 50.6476  7311.11  84.6882
 50.8456  7338.96  84.9354
 51.0436  7100.73  84.0048
 51.2416  7021.76  83.1984
 51.4396  6869.74  82.705
 51.6376  7132.93  84.0986
 51.8356  7016.45  83.0324
 52.0336  7075.92  83.8779
 52.2316  7027.9  83.9593
 52.4296  6985.18  83.3872
 52.6276  6908.27  83.0481
 52.8256  7056.38  83.4862
 53.0236  7016.1  83.9184
 53.2216  7050.67  84.1654
 53.4196  6927.14  83.3342
 53.6176  6991.12  84.2255
 53.8156  6936.54  83.5624
 54.0136  6697.19  82.2599
 54.2116  6930.68  83.2965
 54.4096  6664.06  81.7685
 54.6076  6658.19  82.0742
 54.8056  6533.59  81.0876
 55.0036  6586.81  81.8307
 55.2016  6703.11  82.0367
 55.3996  6432.69  80.3652
 55.5976  6458.64  80.7342
 55.7956  6438.17  80.398
 55.9936  6629.8  81.7257
 56.1916  6544.6  81.2149
 56.3896  6324.28  79.8332
 56.5876  6345.53  80.5042
 56.7856  6379.6  80.24
 56.9836  6473.8  80.5873
 57.1816  6504.46  81.1557
 57.3796  6303.38  79.6635
 57.5776  6372.49  80.0462
 57.7756  6229.56  79.8006
 57.9736  6273.69  79.7534
 58.1716  6120.85  79.0249
 58.3696  5974.53  77.846
 58.5676  6068.25  77.9346
 58.7656  6027.38  78.3316
 58.9636  5948.02  77.8481
 59.1616  5925.56  77.8312
 59.3596  6057.21  77.9254
 59.5576  6073.49  78.0884
 59.7556  5792.25  76.6685
 59.9536  6037.16  78.1715
 60.1516  5987.41  78.6936
 60.1996  0.0000000E+00  0.0000000E+00