Folder: echemistpy/docs/examples/opeando_xrd/IS17_D/Data/IS17_D (part 75)

File: 17_Db_f00038.xye
# /beamlines/bl04/projects/cycle2025-II/20250340211-lsimonelli/DATA/IS17_D/17_Db_f00038.xye : mythproc.py merge -s 0.006 -l 0.5 -f /beamlines/bl04/inhouse/ff/FlatField/ff_20Nov2024rod8mm60s_17keV.raw -b True -c true -o xye /beamlines/bl04/projects/cycle2025-II/20250340211-lsimonelli/DATA/IS17_D/17_Db_00038.dat
# IsMon = [6746794, 6765527, 6786024]  IsPos = [-1.4999, -2.4885, -3.4986]
# Wave = 0.4962  CalPath /beamlines/bl04/projects/cycle2025-II/20250340211-lsimonelli/DATA/Align/Si_Pos1_25keV_f00001.cal
# Date = 2025-09-24_04:16:57 Dt = 4.8000  Bin = 0.0060  <imon> = 6766115 +/- 16021 (Min/Max) 6746794 / 6786024
# icurr 250.1984  mocoIn 1.7083E-05  mocoOut 0.8009  i15 7.08591e+06  imon 6.76612e+06  i7 3.6667  iEMpd_timer 4.8000  iEMpd_1 3.4113E-08  iEMpd_2 7.7275E-08  iEMpd_3 1.4650E-08  iEMpd_4 4.7724E-08  iEMhp_timer 4.8000  iEMhp_1 4.9024E-06  iEMhp_2 -2.5063E-08  iEMhp_3 -2.3955E-08  iEMhp_4 -2.2402E-08
#      9776
 1.7416  70377.7  265.744
 1.9396  48898.5  221.802
 2.1376  35689.4  189.482
 2.3356  32277.4  179.818
 2.5336  29428.4  172.303
 2.7316  27416.8  166.314
 2.9296  26289.4  163.019
 3.1276  25794.1  161.045
 3.3256  24806  157.521
 3.5236  26470.7  162.71
 3.7216  24161.3  156.449
 3.9196  23481.1  153.443
 4.1176  23392.1  152.982
 4.3156  24344.2  156.125
 4.5136  26743.9  162.673
 4.7116  27743.3  166.826
 4.9096  26941.9  163.829
 5.1076  26720.3  163.794
 5.3056  26788.8  163.552
 5.5036  26221.6  161.795
 5.7016  26592.7  162.944
 5.8996  27171.9  163.943
 6.0976  28017.9  167.933
 6.2956  28180.6  167.67
 6.4936  28914.1  169.082
 6.6916  29320  171.253
 6.8896  29937.1  172.899
 7.0876  30979.4  176.622
 7.2856  30784.3  175.123
 7.4836  31051.4  175.234
 7.6816  31969.7  178.313
 7.8796  32365.4  179.302
 8.0776  34142.1  185.124
 8.2756  35501.2  187.366
 8.4736  36414.9  189.622
 8.6716  35215.1  187.129
 8.8696  36102.7  190.052
 9.0676  35245.2  187.119
 9.2656  33728.2  183.73
 9.4636  33130.3  180.496
 9.6616  32260  178.824
 9.8596  31672.3  176.857
 10.0576  29725.9  171.946
 10.2556  28871.6  169.941
 10.4536  27850.7  166.515
 10.6516  27078.4  164.395
 10.8496  26170.8  160.929
 11.0476  25203.4  157.902
 11.2456  24388.7  155.879
 11.4436  24679.3  156.013
 11.6416  25943.3  160.295
 11.8396  23867.9  154
 12.0376  23258  151.567
 12.2356  22818.3  150.617
 12.4336  22818.2  150.144
 12.6316  22873.7  150.633
 12.8296  23009.6  150.656
 13.0276  23206.7  151.455
 13.2256  23576.6  153.061
 13.4236  23547.5  152.737
 13.6216  23883.3  153.877
 13.8196  26012  160.01
 14.0176  22911.9  150.693
 14.2156  22459.9  148.298
 14.4136  21398.4  146.1
 14.6116  21244.1  144.787
 14.8096  20421.6  141.879
 15.0076  19565  142.791
 15.2056  18528.9  134.729
 15.4036  17803.5  132.878
 15.6016  17421.8  130.555
 15.7996  16869  128.702
 15.9976  16667.2  130.844
 16.1956  16426.5  127.864
 16.3936  15887.1  124.941
 16.5916  15756  125.06
 16.7896  15865.3  125.552
 16.9876  15661.6  126.196
 17.1856  15385.3  123.526
 17.3836  15094.4  122.293
 17.5816  14578.9  120.651
 17.7796  14421.1  119.93
 17.9776  14005.5  118.864
 18.1756  13990.1  117.577
 18.3736  13701.1  116.823
 18.5716  13758.1  116.829
 18.7696  13577  115.624
 18.9676  13463  114.995
 19.1656  13232.8  114.493
 19.3636  13169.4  114.449
 19.5616  13172.3  114.623
 19.7596  13380.5  114.981
 19.9576  13461.7  115.329
 20.1556  14244.6  119.136
 20.3536  13330  114.671
 20.5516  12921.8  113.332
 20.7496  12561.9  111.683
 20.9476  12617  111.734
 21.1456  12501.1  111.464
 21.3436  12389.4  110.944
 21.5416  12266.4  110.41
 21.7396  12070.1  109.368
 21.9376  11989.1  108.78
 22.1356  12079.3  109.163
 22.3336  11839.5  108.399
 22.5316  11925.2  108.9
 22.7296  11795.1  107.686
 22.9276  11837.2  108.529
 23.1256  12054.7  108.985
 23.3236  12391.7  111.17
 23.5216  12179.9  109.856
 23.7196  12055.6  109.25
 23.9176  12028.8  108.933
 24.1156  11848.4  108.523
 24.3136  11469.6  107.63
 24.5116  11546.5  107.51
 24.7096  11223.3  105.826
 24.9076  11026.9  104.948
 25.1056  10882  104.386
 25.3036  10547.9  102.517
 25.5016  10694.3  103.266
 25.6996  10546.8  102.144
 25.8976  10655.8  103.124
 26.0956  10509.1  102.353
 26.2936  10479.3  101.919
 26.4916  10799.3  103.326
 26.6896  10393.9  101.662
 26.8876  10353.7  101.356
 27.0856  10138.7  100.288
 27.2836  9981.23  99.5556
 27.4816  9873.29  98.8335
 27.6796  9949.03  99.567
 27.8776  10071.6  100.068
 28.0756  9707.9  98.4764
 28.2736  9712.09  98.118
 28.4716  9456.74  96.8699
 28.6696  9464.86  96.76
 28.8676  9414.71  96.8486
 29.0656  9330.2  96.3852
 29.2636  9382.61  96.4079
 29.4616  9000.48  94.5734
 29.6596  8947.41  93.884
 29.8576  8862.3  94.0961
 30.0556  8860.37  93.9445
 30.2536  9025.8  94.6403
 30.4516  9151.25  95.0153
 30.6496  9238.29  95.1975
 30.8476  9070.62  94.7658
 31.0456  9173.57  95.3087
 31.2436  9087.75  94.1406
 31.4416  8842.42  93.0626
 31.6396  8996.63  93.9141
 31.8376  8918.18  93.028
 32.0356  8903.32  93.5189
 32.2336  8812.44  92.4806
 32.4316  8684.34  92.1163
 32.6296  8717.07  92.056
 32.8276  8645.01  91.5387
 33.0256  8551.98  91.0996
 33.2236  8690.17  92.0076
 33.4216  8443.55  90.3314
 33.6196  8550.78  91.2234
 33.8176  8533.17  91.2898
 34.0156  8439.03  90.4225
 34.2136  8462.57  90.6019
 34.4116  8205.75  89.3212
 34.6096  8298.47  89.7307
 34.8076  8193.35  89.567
 35.0056  8263.53  89.6244
 35.2036  8422.43  90.7364
 35.4016  8160.04  89.1702
 35.5996  8117.29  88.999
 35.7976  8169.24  89.5535
 35.9956  8229.83  89.5285
 36.1936  8203.09  89.2513
 36.3916  7959.59  88.1016
 36.5896  7929.25  89.3897
 36.7876  7811.36  87.5795
 36.9856  7693.74  86.9445
 37.1836  7727.12  86.26
 37.3816  7740.69  86.6704
 37.5796  7832.46  88.9567
 37.7776  7895.59  87.7435
 37.9756  7862.03  87.4404
 38.1736  7895.91  87.7868
 38.3716  7749.49  87.2271
 38.5696  7606.62  86.7898
 38.7676  7633.32  86.5279
 38.9656  7726.94  86.6986
 39.1636  7665.39  86.5817
 39.3616  7663.77  86.5181
 39.5596  7597.67  86.9197
 39.7576  7568.76  86.1571
 39.9556  7743.62  86.7927
 40.1536  7715.27  86.827
 40.3516  7692.25  86.7615
 40.5496  7707.07  86.8341
 40.7476  7705  87.0319
 40.9456  7706.56  86.8017
 41.1436  7749.91  86.7986
 41.3416  7579.23  86.1161
 41.5396  7581.05  85.9546
 41.7376  7557.92  86.0834
 41.9356  7612.71  86.2555
 42.1336  7746.48  87.1818
 42.3316  7512.87  86.0018
 42.5296  7635.34  86.2467
 42.7276  7577.04  86.1619
 42.9256  7564.05  85.9585
 43.1236  7517.11  85.7948
 43.3216  7439.29  85.2011
 43.5196  7454.46  85.2735
 43.7176  7498.78  85.889
 43.9156  7337.67  84.8236
 44.1136  7271.08  84.0023
 44.3116  7278.94  84.0405
 44.5096  7346.66  84.7539
 44.7076  7371.66  84.8292
 44.9056  7557.04  85.8167
 45.1036  7430.39  84.7148
 45.3016  7376.65  84.9089
 45.4996  7193.91  83.7938
 45.6976  7141.14  83.6207
 45.8956  7301.39  84.4655
 46.0936  7463.94  85.4259
 46.2916  7336.93  84.6619
 46.4896  7407.64  85.0898
 46.6876  7173.24  84.442
 46.8856  7208.65  83.9408
 47.0836  7153.44  83.8158
 47.2816  7131.27  83.5363
 47.4796  7157.41  83.7894
 47.6776  7219.46  85.1067
 47.8756  7176.31  84.0231
 48.0736  7210.97  84.6862
 48.2716  7074.29  83.6721
 48.4696  7360.56  84.9528
 48.6676  7105.32  84.0583
 48.8656  7095.46  83.7278
 49.0636  7294.7  84.8756
 49.2616  7043.99  83.3835
 49.4596  7015.66  82.8028
 49.6576  7057.55  83.2801
 49.8556  7046.01  83.2279
 50.0536  7105.33  84.0261
 50.2516  7006.85  83.5485
 50.4496  7071.69  83.6148
 50.6476  7077.97  83.3284
 50.8456  7008.67  83.0093
 51.0436  6766.36  81.9439
 51.2416  6849.24  82.0981
 51.4396  6706.17  81.6572
 51.6376  6751.54  81.7704
 51.8356  6770.28  81.515
 52.0336  6754.22  81.9636
 52.2316  6749.92  82.2971
 52.4296  6752.69  81.9732
 52.6276  6706.6  81.7986
 52.8256  6840.07  82.2082
 53.0236  6847.31  82.9527
 53.2216  6774.63  82.5512
 53.4196  6820.07  82.7317
 53.6176  6644.76  82.1595
 53.8156  6827.31  82.9495
 54.0136  6485.35  80.924
 54.2116  6583.83  81.2329
 54.4096  6304.21  79.5248
 54.6076  6372.79  80.3008
 54.8056  6311.7  79.7073
 55.0036  6312.31  80.1062
 55.2016  6426.97  80.3762
 55.3996  6233.87  79.0957
 55.5976  6298.84  79.7088
 55.7956  6289.27  79.4511
 55.9936  6366.88  80.135
 56.1916  6200.95  79.0689
 56.3896  6089.57  78.3207
 56.5876  6097.77  78.941
 56.7856  6158.69  78.8313
 56.9836  6164.82  78.6686
 57.1816  6206.94  79.2876
 57.3796  6013.55  77.8013
 57.5776  6181.54  78.8303
 57.7756  6053.79  78.6651
 57.9736  6007.72  78.0256
 58.1716  5951.22  77.9015
 58.3696  5706.74  76.0408
 58.5676  5850.31  76.4758
 58.7656  5673.43  75.9462
 58.9636  5796.65  76.7922
 59.1616  5710.72  76.3461
 59.3596  5741.56  75.7803
 59.5576  5772.41  76.039
 59.7556  5662.8  75.718
 59.9536  5822.17  76.6769
 60.1516  5785.49  77.2646
 60.1996  0.0000000E+00  0.0000000E+00

File: 17_Db_f00039.xye
# /beamlines/bl04/projects/cycle2025-II/20250340211-lsimonelli/DATA/IS17_D/17_Db_f00039.xye : mythproc.py merge -s 0.006 -l 0.5 -f /beamlines/bl04/inhouse/ff/FlatField/ff_20Nov2024rod8mm60s_17keV.raw -b True -c true -o xye /beamlines/bl04/projects/cycle2025-II/20250340211-lsimonelli/DATA/IS17_D/17_Db_00039.dat
# IsMon = [6751647, 6747406, 6746194]  IsPos = [-1.4999, -2.4885, -3.4988]
# Wave = 0.4962  CalPath /beamlines/bl04/projects/cycle2025-II/20250340211-lsimonelli/DATA/Align/Si_Pos1_25keV_f00001.cal
# Date = 2025-09-24_04:33:32 Dt = 4.8000  Bin = 0.0060  <imon> = 6748416 +/- 2338 (Min/Max) 6746194 / 6751647
# icurr 249.3049  mocoIn 1.7016E-05  mocoOut 0.7985  i15 7.06719e+06  imon 6.74842e+06  i7 4.3333  iEMpd_timer 4.8000  iEMpd_1 3.4974E-08  iEMpd_2 7.8307E-08  iEMpd_3 1.6430E-08  iEMpd_4 4.8159E-08  iEMhp_timer 4.8000  iEMhp_1 4.8723E-06  iEMhp_2 -2.4832E-08  iEMhp_3 -2.3315E-08  iEMhp_4 -2.2399E-08
#      9776
 1.7416  71081.2  266.623
 1.9396  48518.6  220.566
 2.1376  35773.4  189.387
 2.3356  31852.6  178.333
 2.5336  29662.2  172.698
 2.7316  27313.4  165.863
 2.9296  26316.6  162.968
 3.1276  25837.7  161.002
 3.3256  24688.7  157.058
 3.5236  26419.8  162.409
 3.7216  23913.3  155.641
 3.9196  23398.8  153.168
 4.1176  23188.1  152.247
 4.3156  24304.4  156.061
 4.5136  26416.7  161.674
 4.7116  27583.4  166.339
 4.9096  26815.4  163.449
 5.1076  26571.4  163.267
 5.3056  26460.8  162.673
 5.5036  26114  161.589
 5.7016  26482.1  162.604
 5.8996  27164.4  163.916
 6.0976  27911  167.544
 6.2956  27950.7  167.036
 6.4936  28771  168.67
 6.6916  29191.5  170.873
 6.8896  30050.3  173.219
 7.0876  30954.6  176.549
 7.2856  30776.9  175.093
 7.4836  30846.7  174.651
 7.6816  31827.7  177.909
 7.8796  32657  180.246
 8.0776  33684.8  184.032
 8.2756  35396  187.29
 8.4736  35953.8  188.573
 8.6716  34983.9  186.615
 8.8696  36016.5  189.817
 9.0676  34888.7  186.156
 9.2656  34018.8  184.507
 9.4636  33131.3  180.592
 9.6616  32284.3  178.982
 9.8596  31628  176.581
 10.0576  29596.9  171.48
 10.2556  28724.1  169.364
 10.4536  27628  165.706
 10.6516  27197.4  164.622
 10.8496  25890.8  160.059
 11.0476  24936.2  157.06
 11.2456  24343.3  155.739
 11.4436  24573.3  155.661
 11.6416  25936.6  160.27
 11.8396  23739.8  153.52
 12.0376  23118  151.16
 12.2356  22766.1  150.441
 12.4336  22740.4  149.879
 12.6316  22688  149.959
 12.8296  22962  150.487
 13.0276  23136.8  151.275
 13.2256  23420.8  152.552
 13.4236  23362.7  152.137
 13.6216  23626.5  152.969
 13.8196  25814.4  159.341
 14.0176  22796.1  150.364
 14.2156  22335.6  147.866
 14.4136  21178.3  145.338
 14.6116  21073.6  144.204
 14.8096  20332.1  141.629
 15.0076  19509.7  142.536
 15.2056  18333.5  134.133
 15.4036  17790.7  132.939
 15.6016  17321.6  130.284
 15.7996  16855.9  128.79
 15.9976  16571  130.516
 16.1956  16318.3  127.416
 16.3936  15833.9  124.717
 16.5916  15751.5  125.023
 16.7896  15622  124.578
 16.9876  15627.8  126.031
 17.1856  15393.8  123.492
 17.3836  15115.3  122.276
 17.5816  14623.5  120.736
 17.7796  14283.1  119.25
 17.9776  13857  118.224
 18.1756  13796.4  116.759
 18.3736  13615.3  116.452
 18.5716  13497.5  115.71
 18.7696  13533  115.441
 18.9676  13520  115.187
 19.1656  13067.7  113.822
 19.3636  13052.7  113.937
 19.5616  12974.7  113.757
 19.7596  13362.4  114.845
 19.9576  13359.9  114.895
 20.1556  14096.8  118.549
 20.3536  13374.5  114.858
 20.5516  12830.9  112.936
 20.7496  12641  112.033
 20.9476  12553.4  111.396
 21.1456  12355.5  110.848
 21.3436  12277.9  110.445
 21.5416  12139.2  109.834
 21.7396  12049.8  109.276
 21.9376  11974.5  108.717
 22.1356  12025.2  109.061
 22.3336  11748  108.07
 22.5316  11757.6  108.218
 22.7296  11865.4  108.102
 22.9276  11755.2  108.241
 23.1256  11899.9  108.401
 23.3236  12222.7  110.402
 23.5216  12126.7  109.606
 23.7196  11842.4  108.277
 23.9176  11999.7  108.727
 24.1156  11755.3  108.078
 24.3136  11500.5  107.679
 24.5116  11489.4  107.162
 24.7096  11090.2  105.108
 24.9076  11118.4  105.267
 25.1056  10719.9  103.561
 25.3036  10588.8  102.713
 25.5016  10592.8  102.767
 25.6996  10494.7  101.887
 25.8976  10507.5  102.365
 26.0956  10355.8  101.645
 26.2936  10368.4  101.374
 26.4916  10635.7  102.53
 26.6896  10296.8  101.181
 26.8876  10293.9  101.017
 27.0856  10062.7  99.9072
 27.2836  9930.01  99.1748
 27.4816  9809.97  98.5107
 27.6796  9708.17  98.354
 27.8776  9934.59  99.3469
 28.0756  9618.92  98.054
 28.2736  9642.52  97.762
 28.4716  9448.48  96.8224
 28.6696  9490.07  96.8828
 28.8676  9322.18  96.3648
 29.0656  9261.92  96.0298
 29.2636  9328.8  96.0868
 29.4616  8946.32  94.3704
 29.6596  8911.22  93.7721
 29.8576  8740.8  93.5243
 30.0556  8908.49  94.3001
 30.2536  8831.23  93.6921
 30.4516  9044.54  94.4298
 30.6496  9139.03  94.6797
 30.8476  9085.47  94.8402
 31.0456  9149.34  95.1253
 31.2436  9060.28  93.9383
 31.4416  8935.48  93.4725
 31.6396  9023.93  93.9734
 31.8376  8993.16  93.3227
 32.0356  8943.12  93.6537
 32.2336  8900.53  92.8377
 32.4316  8522.84  91.2451
 32.6296  8593.71  91.4074
 32.8276  8661.64  91.6212
 33.0256  8595.16  91.3278
 33.2236  8567.81  91.3203
 33.4216  8471.9  90.5223
 33.6196  8500.01  90.9481
 33.8176  8479.94  91.0004
 34.0156  8364.74  90.0217
 34.2136  8466.96  90.583
 34.4116  8186.34  89.2441
 34.6096  8174.55  89.0547
 34.8076  8075.78  88.9208
 35.0056  8041.44  88.4082
 35.2036  8326.36  90.1807
 35.4016  8082.82  88.7762
 35.5996  8176.73  89.3182
 35.7976  8088.29  89.1015
 35.9956  8144.43  89.0619
 36.1936  8107.76  88.711
 36.3916  7885.14  87.6893
 36.5896  7898.63  89.1761
 36.7876  7802.26  87.6014
 36.9856  7637.35  86.698
 37.1836  7614.77  85.7049
 37.3816  7709.92  86.5945
 37.5796  7852.73  89.0773
 37.7776  7756.03  86.9194
 37.9756  7768.05  86.87
 38.1736  7724.89  86.8265
 38.3716  7710.3  87.0008
 38.5696  7653.96  87.0547
 38.7676  7540.48  85.9295
 38.9656  7475.62  85.1974
 39.1636  7669.18  86.5341
 39.3616  7718.38  86.7787
 39.5596  7524.11  86.5069
 39.7576  7481.26  85.6583
 39.9556  7488.43  85.3466
 40.1536  7677.12  86.598
 40.3516  7620.22  86.3061
 40.5496  7671.76  86.6374
 40.7476  7687.22  86.9312
 40.9456  7587.66  86.1294
 41.1436  7757.24  86.8026
 41.3416  7470.9  85.5238
 41.5396  7661.68  86.4159
 41.7376  7611.14  86.3914
 41.9356  7529.44  85.7795
 42.1336  7716.23  86.9724
 42.3316  7574.98  86.3867
 42.5296  7578.97  85.9238
 42.7276  7477.32  85.5897
 42.9256  7572.77  86.0077
 43.1236  7464.74  85.4905
 43.3216  7516.58  85.6348
 43.5196  7409.94  84.9812
 43.7176  7462.94  85.687
 43.9156  7217.48  84.1969
 44.1136  7152.29  83.3815
 44.3116  7258.83  84.0178
 44.5096  7209.53  84.027
 44.7076  7259.56  84.2525
 44.9056  7361.37  84.6961
 45.1036  7296.93  83.9511
 45.3016  7237.15  84.0967
 45.4996  7443.18  85.2288
 45.6976  7182.04  83.9015
 45.8956  7203.27  83.8292
 46.0936  7316.61  84.4903
 46.2916  7204.92  83.8196
 46.4896  7199.82  83.8087
 46.6876  7233.1  84.7265
 46.8856  7116.76  83.3214
 47.0836  7151.06  83.76
 47.2816  7036.07  82.975
 47.4796  7147.97  83.7349
 47.6776  7052.82  84.1145
 47.8756  7230.05  84.3334
 48.0736  7104.74  84.0522
 48.2716  7071.91  83.6761
 48.4696  7150.54  83.7323
 48.6676  7110.91  84.0843
 48.8656  7264.83  84.7174
 49.0636  7183.42  84.1864
 49.2616  7017.6  83.2521
 49.4596  7088.76  83.2166
 49.6576  7023.45  83.0688
 49.8556  6954.35  82.684
 50.0536  7019.07  83.5108
 50.2516  6934.57  83.1112
 50.4496  6958.33  82.9435
 50.6476  6992.27  82.8222
 50.8456  7021.06  83.0768
 51.0436  6799.45  82.2146
 51.2416  6813.01  81.9707
 51.4396  6682.93  81.5828
 51.6376  6738.96  81.7315
 51.8356  6810.95  81.8
 52.0336  6748.78  81.9273
 52.2316  6819.59  82.715
 52.4296  6750.12  81.9997
 52.6276  6668.59  81.6075
 52.8256  6775.16  81.8143
 53.0236  6741.71  82.2396
 53.2216  6727.72  82.1866
 53.4196  6631.65  81.5104
 53.6176  6704.46  82.4641
 53.8156  6607.73  81.5342
 54.0136  6403.32  80.4509
 54.2116  6562.15  81.0501
 54.4096  6484.73  80.6606
 54.6076  6381.67  80.3553
 54.8056  6282.18  79.5051
 55.0036  6243.81  79.6634
 55.2016  6399.34  80.1577
 55.3996  6165.27  78.6738
 55.5976  6329.46  79.9115
 55.7956  6182.16  78.7881
 55.9936  6309.07  79.7046
 56.1916  6128.48  78.5964
 56.3896  6057.84  78.1244
 56.5876  6078.23  78.7919
 56.7856  6048.53  78.1222
 56.9836  6194.79  78.8142
 57.1816  6158.28  78.9476
 57.3796  6073.21  78.2278
 57.5776  6037.19  77.8715
 57.7756  5905.74  77.7039
 57.9736  5984.17  77.8927
 58.1716  5879.42  77.4603
 58.3696  5764.46  76.4703
 58.5676  5801.21  76.2006
 58.7656  5734.49  76.4166
 58.9636  5645.04  75.8459
 59.1616  5659.3  76.0699
 59.3596  5677.9  75.4811
 59.5576  5785.33  76.2485
 59.7556  5757.19  76.4712
 59.9536  5564.67  75.0847
 60.1516  5685.54  76.7195
 60.1996  0.0000000E+00  0.0000000E+00