Folder: echemistpy/docs/examples/opeando_xrd/IS17_D/Data/IS17_D (part 34)

File: 17_Da_f00088.xye
# /beamlines/bl04/projects/cycle2025-II/20250340211-lsimonelli/DATA/IS17_D/17_Da_f00088.xye : mythproc.py merge -s 0.006 -l 0.5 -f /beamlines/bl04/inhouse/ff/FlatField/ff_20Nov2024rod8mm60s_17keV.raw -b True -c true -o xye /beamlines/bl04/projects/cycle2025-II/20250340211-lsimonelli/DATA/IS17_D/17_Da_00088.dat
# IsMon = [6777996, 6772964, 6776970]  IsPos = [-1.4999, -2.4884, -3.4988]
# Wave = 0.4962  CalPath /beamlines/bl04/projects/cycle2025-II/20250340211-lsimonelli/DATA/Align/Si_Pos1_25keV_f00001.cal
# Date = 2025-09-24_18:03:48 Dt = 4.8000  Bin = 0.0060  <imon> = 6775977 +/- 2171 (Min/Max) 6772964 / 6777996
# icurr 251.5827  mocoIn 1.7161E-05  mocoOut 0.8049  i15 7.09371e+06  imon 6.77598e+06  i7 4.3333  iEMpd_timer 4.8000  iEMpd_1 3.4340E-08  iEMpd_2 7.8511E-08  iEMpd_3 1.7425E-08  iEMpd_4 4.6716E-08  iEMhp_timer 4.8000  iEMhp_1 4.9135E-06  iEMhp_2 -2.6270E-08  iEMhp_3 -2.3372E-08  iEMhp_4 -2.1392E-08
#      9776
 1.7416  69584.3  263.825
 1.9396  45697.9  214.075
 2.1376  32087.9  179.383
 2.3356  28874  169.805
 2.5336  26477.5  163.178
 2.7316  25333.4  159.756
 2.9296  24154.6  156.158
 3.1276  23792.4  154.521
 3.3256  23518.6  153.32
 3.5236  25193.2  158.49
 3.7216  23231.2  153.413
 3.9196  22848.1  151.355
 4.1176  22609.4  150.346
 4.3156  23825.5  154.504
 4.5136  26231.6  161.115
 4.7116  27417.8  165.847
 4.9096  26946.8  163.851
 5.1076  26320.4  162.504
 5.3056  26988  164.29
 5.5036  26928.9  164.013
 5.7016  27246.6  164.936
 5.8996  27921  166.165
 6.0976  28578.5  169.56
 6.2956  29161.5  170.62
 6.4936  29617.9  171.134
 6.6916  29928.2  173.031
 6.8896  30543.5  174.66
 7.0876  31666.2  178.569
 7.2856  31411.2  176.908
 7.4836  31832.4  177.427
 7.6816  32754.8  180.517
 7.8796  34119.4  184.245
 8.0776  35628.6  189.258
 8.2756  37463.7  192.658
 8.4736  37940.9  193.7
 8.6716  37327.9  192.776
 8.8696  37329.9  193.209
 9.0676  36350.8  190.021
 9.2656  35836.8  189.364
 9.4636  35136.4  185.909
 9.6616  34264.4  184.366
 9.8596  33162.8  180.866
 10.0576  30956.1  175.416
 10.2556  30301  173.979
 10.4536  29733  171.938
 10.6516  28853.2  169.568
 10.8496  28072.6  166.66
 11.0476  27379.3  164.622
 11.2456  26657.3  162.982
 11.4436  26918.4  162.939
 11.6416  26318.4  161.465
 11.8396  24788.3  156.895
 12.0376  24704.1  156.277
 12.2356  24211.8  155.129
 12.4336  24220.3  154.687
 12.6316  23814.1  153.638
 12.8296  24005.2  153.906
 13.0276  24592.7  155.96
 13.2256  24696.7  156.656
 13.4236  24479.8  155.735
 13.6216  24358  155.354
 13.8196  24467.6  155.48
 14.0176  24084.9  154.552
 14.2156  23630.2  152.119
 14.4136  22286.8  149.1
 14.6116  21901.2  147.015
 14.8096  21516  145.702
 15.0076  20260.3  145.2
 15.2056  19924.9  139.825
 15.4036  19046.2  137.542
 15.6016  18787.2  135.677
 15.7996  18388.7  134.506
 15.9976  17632.4  134.663
 16.1956  17014.2  130.138
 16.3936  16450.1  127.143
 16.5916  16311.3  127.237
 16.7896  16512.8  128.078
 16.9876  16294.1  128.71
 17.1856  15872.1  125.416
 17.3836  15586.2  124.174
 17.5816  15105.5  122.732
 17.7796  14954.4  122.048
 17.9776  14927  122.718
 18.1756  15286.2  122.884
 18.3736  15030.6  122.373
 18.5716  14730.2  120.882
 18.7696  14699.7  120.328
 18.9676  14140.7  117.817
 19.1656  14196.1  118.614
 19.3636  13961  117.837
 19.5616  14085.5  118.529
 19.7596  14231.6  118.529
 19.9576  14522.7  119.801
 20.1556  14132  118.706
 20.3536  13688.8  116.208
 20.5516  13532.4  115.986
 20.7496  13221.7  114.588
 20.9476  13129.4  113.935
 21.1456  13257.6  114.825
 21.3436  13055.9  113.896
 21.5416  12840.4  112.954
 21.7396  12889.5  113.018
 21.9376  12861.8  112.654
 22.1356  12835.5  112.677
 22.3336  12678.7  112.286
 22.5316  12702.9  112.468
 22.7296  12687.5  111.762
 22.9276  12698.9  112.492
 23.1256  12977.6  113.186
 23.3236  12719.2  112.597
 23.5216  12708.5  112.2
 23.7196  12505.1  111.252
 23.9176  12501.1  110.984
 24.1156  12081  109.577
 24.3136  11942.3  109.753
 24.5116  11980.4  109.454
 24.7096  11732  108.131
 24.9076  11462.2  106.901
 25.1056  11173.4  106.013
 25.3036  11280.5  106.027
 25.5016  11132.5  105.359
 25.6996  11024.5  104.43
 25.8976  10989  104.693
 26.0956  11055.8  105.033
 26.2936  11021.2  104.517
 26.4916  10950.4  104.057
 26.6896  10611.5  102.732
 26.8876  10577.9  102.416
 27.0856  10654.8  102.843
 27.2836  10311  101.065
 27.4816  10421.8  101.541
 27.6796  10381  101.716
 27.8776  10167.6  100.521
 28.0756  10218.5  101.067
 28.2736  10129.8  100.208
 28.4716  9995.36  99.5878
 28.6696  10056  99.7359
 28.8676  9886.93  99.2453
 29.0656  9736.95  98.4655
 29.2636  9705.41  98.0976
 29.4616  9640.03  97.9603
 29.6596  9802.95  98.3468
 29.8576  9542.77  97.7174
 30.0556  9580.04  97.7764
 30.2536  9603.76  97.7007
 30.4516  9532.42  96.9728
 30.6496  9576.51  96.9202
 30.8476  9399.91  96.4647
 31.0456  9371.91  96.2771
 31.2436  9382.72  95.6001
 31.4416  9105.84  94.3728
 31.6396  9105.89  94.4208
 31.8376  9144.18  94.1714
 32.0356  9166.65  94.85
 32.2336  9061  93.686
 32.4316  9021.84  93.8969
 32.6296  8979.87  93.5138
 32.8276  9043.15  93.6117
 33.0256  8926.12  93.082
 33.2236  8885.58  93.0077
 33.4216  8948.12  93.0213
 33.6196  8926.53  93.219
 33.8176  8799.51  92.7089
 34.0156  8737.56  92.0034
 34.2136  8709.17  91.8821
 34.4116  8648.67  91.726
 34.6096  8594.87  91.315
 34.8076  8505.97  91.2444
 35.0056  8601.71  91.4505
 35.2036  8500.65  91.1078
 35.4016  8461.82  90.8397
 35.5996  8507.37  91.1162
 35.7976  8381.27  90.7135
 35.9956  8397.57  90.4451
 36.1936  8356.3  90.0961
 36.3916  8278.27  89.8469
 36.5896  8197.21  90.3522
 36.7876  8233.73  89.987
 36.9856  8185.37  89.7491
 37.1836  8312.95  89.5426
 37.3816  8249.64  89.5588
 37.5796  8076.66  90.3286
 37.7776  7869.29  87.5447
 37.9756  7949.84  87.8776
 38.1736  8085.52  88.8227
 38.3716  8070.43  89.0183
 38.5696  7969.78  88.8497
 38.7676  7856.73  87.7245
 38.9656  7923.95  87.7353
 39.1636  7866.19  87.6707
 39.3616  7972.49  88.1995
 39.5596  7830.11  88.2545
 39.7576  7879.22  87.904
 39.9556  7946.76  87.9119
 40.1536  7989.52  88.3524
 40.3516  8011.13  88.4811
 40.5496  8070.95  89.086
 40.7476  7984.02  88.6031
 40.9456  7999.73  88.4384
 41.1436  7947.7  87.8654
 41.3416  7940.42  88.1679
 41.5396  7840.4  87.4167
 41.7376  7887.84  87.9485
 41.9356  7873.58  87.7288
 42.1336  7842.65  87.6974
 42.3316  7831.75  87.8415
 42.5296  7835.57  87.3748
 42.7276  7938.45  88.1914
 42.9256  7900.9  87.8466
 43.1236  7765.79  87.2051
 43.3216  7845.94  87.3985
 43.5196  7659.82  86.4251
 43.7176  7663.18  86.8333
 43.9156  7630.21  86.5665
 44.1136  7589.97  85.8892
 44.3116  7660.44  86.2984
 44.5096  7695.15  86.8086
 44.7076  7554.92  85.9452
 44.9056  7562.03  85.835
 45.1036  7350.7  84.2549
 45.3016  7327.58  84.6216
 45.4996  7387.25  84.9045
 45.6976  7260.87  84.3502
 45.8956  7316.83  84.5019
 46.0936  7372.03  84.8153
 46.2916  7383.85  84.8723
 46.4896  7263.31  84.2138
 46.6876  7237.32  84.7616
 46.8856  7156.72  83.5464
 47.0836  7154.23  83.7857
 47.2816  7140.89  83.5959
 47.4796  7140.69  83.6953
 47.6776  6944.23  83.4711
 47.8756  7004.24  83.009
 48.0736  7004.99  83.4597
 48.2716  6892.61  82.6163
 48.4696  7050.82  83.1473
 48.6676  7042.86  83.6722
 48.8656  6972.54  82.9971
 49.0636  6991.89  83.0536
 49.2616  6838.06  82.1825
 49.4596  6963.35  82.5014
 49.6576  6855.27  82.075
 49.8556  6837.65  81.9871
 50.0536  6671.11  81.4216
 50.2516  6838.62  82.5638
 50.4496  6748.35  81.6843
 50.6476  6808.85  81.7311
 50.8456  6657.69  80.8974
 51.0436  6562.33  80.7647
 51.2416  6599.17  80.6672
 51.4396  6380.85  79.7135
 51.6376  6600.84  80.8972
 51.8356  6569.68  80.3487
 52.0336  6451.96  80.104
 52.2316  6398.24  80.1126
 52.4296  6548.83  80.7508
 52.6276  6499.19  80.5508
 52.8256  6438.22  79.7335
 53.0236  6300.65  79.5235
 53.2216  6378.43  80.0475
 53.4196  6138.23  78.45
 53.6176  6211.18  79.3849
 53.8156  6219.03  79.1102
 54.0136  6227.91  79.3372
 54.2116  6219.3  78.945
 54.4096  6202.89  78.9001
 54.6076  6196.23  79.1976
 54.8056  6230.01  79.2032
 55.0036  6194.38  79.368
 55.2016  6243.96  79.2216
 55.3996  6187.12  78.838
 55.5976  6135.6  78.696
 55.7956  6185.52  78.8292
 55.9936  6125.85  78.5691
 56.1916  6190.7  79.0098
 56.3896  6179.32  78.9355
 56.5876  6140.47  79.2279
 56.7856  6084.42  78.3535
 56.9836  6031.49  77.8027
 57.1816  6067.36  78.4088
 57.3796  6198.61  79.0563
 57.5776  6132.86  78.5528
 57.7756  5966.93  78.1208
 57.9736  6069.48  78.4666
 58.1716  6070.57  78.7064
 58.3696  6096.4  78.6406
 58.5676  6090.8  78.0782
 58.7656  6126.37  78.9812
 58.9636  6251.47  79.8137
 59.1616  6212.07  79.6901
 59.3596  6138.86  78.4678
 59.5576  6257.33  79.279
 59.7556  6050.84  78.3786
 59.9536  6200.76  79.2411
 60.1516  6114.7  79.5434
 60.1996  0.0000000E+00  0.0000000E+00

File: 17_Da_f00089.xye
# /beamlines/bl04/projects/cycle2025-II/20250340211-lsimonelli/DATA/IS17_D/17_Da_f00089.xye : mythproc.py merge -s 0.006 -l 0.5 -f /beamlines/bl04/inhouse/ff/FlatField/ff_20Nov2024rod8mm60s_17keV.raw -b True -c true -o xye /beamlines/bl04/projects/cycle2025-II/20250340211-lsimonelli/DATA/IS17_D/17_Da_00089.dat
# IsMon = [6785586, 6789006, 6786749]  IsPos = [-1.5000, -2.4884, -3.4988]
# Wave = 0.4962  CalPath /beamlines/bl04/projects/cycle2025-II/20250340211-lsimonelli/DATA/Align/Si_Pos1_25keV_f00001.cal
# Date = 2025-09-24_18:20:26 Dt = 4.8000  Bin = 0.0060  <imon> = 6787114 +/- 1420 (Min/Max) 6785586 / 6789006
# icurr 252.5475  mocoIn 1.7218E-05  mocoOut 0.8080  i15 7.10443e+06  imon 6.78711e+06  i7 5.6667  iEMpd_timer 4.8000  iEMpd_1 3.5237E-08  iEMpd_2 7.8641E-08  iEMpd_3 1.6538E-08  iEMpd_4 4.6531E-08  iEMhp_timer 4.8000  iEMhp_1 4.9312E-06  iEMhp_2 -2.5595E-08  iEMhp_3 -2.3833E-08  iEMhp_4 -2.2614E-08
#      9776
 1.7416  70318.5  265.282
 1.9396  45830.9  214.436
 2.1376  32400.1  180.301
 2.3356  28750.9  169.487
 2.5336  26747.9  164.052
 2.7316  25332  159.742
 2.9296  24315.1  156.667
 3.1276  23864.4  154.764
 3.3256  23434.1  153.021
 3.5236  25293.3  158.778
 3.7216  23239.9  153.442
 3.9196  22751.2  151.053
 4.1176  22762.4  150.866
 4.3156  23974  154.99
 4.5136  26474.7  161.847
 4.7116  27588  166.363
 4.9096  27053.6  164.173
 5.1076  26597.5  163.368
 5.3056  27187.4  164.898
 5.5036  26910  163.939
 5.7016  27487.1  165.661
 5.8996  28020.7  166.468
 6.0976  28825.3  170.3
 6.2956  29301.6  171.024
 6.4936  29595.2  171.065
 6.6916  30061.9  173.419
 6.8896  30722.4  175.173
 7.0876  31914.5  179.19
 7.2856  31685.4  177.679
 7.4836  31871.9  177.537
 7.6816  32753.2  180.512
 7.8796  34345.5  184.83
 8.0776  35572.2  189.083
 8.2756  37574.5  192.937
 8.4736  38154.9  194.224
 8.6716  37602.1  193.439
 8.8696  36955.2  192.276
 9.0676  36347.2  190.049
 9.2656  35345.9  188.102
 9.4636  35225.7  186.179
 9.6616  34450  184.894
 9.8596  33084.9  180.643
 10.0576  31419.4  176.695
 10.2556  30328.9  174.045
 10.4536  29567  171.448
 10.6516  28791.2  169.383
 10.8496  27989.8  166.426
 11.0476  27338.9  164.501
 11.2456  26724.2  163.172
 11.4436  27041.3  163.298
 11.6416  26175.6  161.028
 11.8396  24765.5  156.837
 12.0376  24825  156.661
 12.2356  24342  155.521
 12.4336  24260.1  154.805
 12.6316  23812.4  153.647
 12.8296  24127.9  154.297
 13.0276  24730.1  156.389
 13.2256  24908.9  157.326
 13.4236  24606.7  156.132
 13.6216  24504.8  155.831
 13.8196  24481.6  155.522
 14.0176  24088.7  154.555
 14.2156  23608.9  152.053
 14.4136  22563.4  150.022
 14.6116  22261.2  148.22
 14.8096  21419.2  145.377
 15.0076  20503.9  146.068
 15.2056  20190.9  140.739
 15.4036  19185.2  138.028
 15.6016  18795.9  135.695
 15.7996  18194.7  133.788
 15.9976  17420.5  133.852
 16.1956  17097.3  130.479
 16.3936  16725.2  128.225
 16.5916  16346.5  127.397
 16.7896  16431.6  127.787
 16.9876  16294.9  128.712
 17.1856  16146.1  126.476
 17.3836  15695.4  124.596
 17.5816  15326.2  123.616
 17.7796  15238.4  123.19
 17.9776  14916.4  122.683
 18.1756  15282.2  122.87
 18.3736  15095.5  122.626
 18.5716  14777.5  121.079
 18.7696  14697.3  120.316
 18.9676  14303.4  118.501
 19.1656  14199.7  118.637
 19.3636  14216.1  118.904
 19.5616  14144.5  118.766
 19.7596  14244.1  118.591
 19.9576  14637.3  120.269
 20.1556  14277.1  119.307
 20.3536  13746.4  116.446
 20.5516  13546  116.047
 20.7496  13164.5  114.247
 20.9476  13134.8  113.962
 21.1456  13262.9  114.842
 21.3436  13033.7  113.802
 21.5416  12827.9  112.897
 21.7396  12776.1  112.516
 21.9376  12816.9  112.461
 22.1356  12909.8  113.147
 22.3336  12719  112.442
 22.5316  12665.7  112.299
 22.7296  12793.6  112.224
 22.9276  12723.4  112.592
 23.1256  12975.7  113.178
 23.3236  12737.6  112.695
 23.5216  12569.6  111.611
 23.7196  12380  110.933
 23.9176  12446.8  110.772
 24.1156  12267.1  110.436
 24.3136  11761.1  108.912
 24.5116  12129.7  110.128
 24.7096  11515.2  107.121
 24.9076  11375.6  106.495
 25.1056  11224.8  106.249
 25.3036  11160  105.449
 25.5016  11098.5  105.196
 25.6996  11123.1  104.895
 25.8976  11016.5  104.827
 26.0956  10998.2  104.761
 26.2936  11090  104.837
 26.4916  11153.1  105.019
 26.6896  10736.1  103.33
 26.8876  10659.7  102.817
 27.0856  10587.1  102.521
 27.2836  10433.1  101.66
 27.4816  10330.4  101.095
 27.6796  10406.7  101.846
 27.8776  10277.8  101.073
 28.0756  10339  101.657
 28.2736  10259.7  100.849
 28.4716  10041.2  99.8135
 28.6696  9961.93  99.2674
 28.8676  9943.66  99.5299
 29.0656  9782.57  98.6944
 29.2636  9688.72  98.0169
 29.4616  9898.89  99.2525
 29.6596  9798.9  98.313
 29.8576  9648.79  98.2469
 30.0556  9483.45  97.2812
 30.2536  9677.05  98.0596
 30.4516  9448.07  96.5593
 30.6496  9565.84  96.8853
 30.8476  9533.24  97.1643
 31.0456  9413.22  96.5057
 31.2436  9352.43  95.4664
 31.4416  9231.24  95.0139
 31.6396  9425.71  96.0594
 31.8376  9187.4  94.3875
 32.0356  9229.61  95.167
 32.2336  9171.94  94.2571
 32.4316  9092.46  94.2524
 32.6296  9057.4  93.9044
 32.8276  9049.12  93.6342
 33.0256  8952.53  93.22
 33.2236  8924.7  93.2212
 33.4216  8933.01  92.945
 33.6196  8956.83  93.3683
 33.8176  8936.36  93.4301
 34.0156  8767.21  92.1577
 34.2136  8704.31  91.8649
 34.4116  8718.65  92.0931
 34.6096  8739.07  92.0787
 34.8076  8559  91.5207
 35.0056  8684.9  91.8905
 35.2036  8556.38  91.4115
 35.4016  8477  90.918
 35.5996  8372.59  90.3886
 35.7976  8380.74  90.7013
 35.9956  8425.07  90.5945
 36.1936  8540.67  91.0803
 36.3916  8341.22  90.1845
 36.5896  8189.61  90.3268
 36.7876  8394.65  90.8468
 36.9856  8312.98  90.4357
 37.1836  8281.51  89.3625
 37.3816  8235.8  89.4845
 37.5796  8211.37  91.0721
 37.7776  8099.88  88.8344
 37.9756  7977.93  88.0507
 38.1736  8179.2  89.3552
 38.3716  8128.36  89.3536
 38.5696  7937.43  88.6677
 38.7676  7903.24  87.9801
 38.9656  7908.83  87.6475
 39.1636  7910.64  87.9211
 39.3616  8087.68  88.8268
 39.5596  7774.17  87.9304
 39.7576  7927.71  88.1671
 39.9556  7993.14  88.1674
 40.1536  8067.03  88.788
 40.3516  8031.53  88.5961
 40.5496  8029.21  88.8472
 40.7476  8080.72  89.1403
 40.9456  8055.22  88.746
 41.1436  7963.87  87.964
 41.3416  7991.17  88.4459
 41.5396  7906.99  87.7908
 41.7376  7936.29  88.2176
 41.9356  7870.73  87.7133
 42.1336  7955.12  88.3229
 42.3316  7848.61  87.9313
 42.5296  7830.64  87.3515
 42.7276  7833.21  87.6038
 42.9256  7793.62  87.2498
 43.1236  7864.27  87.7565
 43.3216  7748.91  86.8613
 43.5196  7712.25  86.7185
 43.7176  7731.69  87.224
 43.9156  7639.17  86.6071
 44.1136  7563.42  85.73
 44.3116  7637.3  86.1658
 44.5096  7453.08  85.4199
 44.7076  7546.61  85.8869
 44.9056  7594.65  86.0374
 45.1036  7551.19  85.4167
 45.3016  7373.65  84.9033
 45.4996  7306.39  84.4534
 45.6976  7325.68  84.7389
 45.8956  7422.94  85.1099
 46.0936  7352.8  84.4688
 46.2916  7382.68  84.8616
 46.4896  7343.96  84.6624
 46.6876  7171.28  84.3669
 46.8856  7196.99  83.7924
 47.0836  7161.95  83.8326
 47.2816  7080.77  83.2348
 47.4796  7158.98  83.7952
 47.6776  7000.23  83.8065
 47.8756  7019.1  83.091
 48.0736  7076.89  83.8966
 48.2716  6984.07  83.1531
 48.4696  7063.22  83.2241
 48.6676  7021.83  83.5599
 48.8656  7063.97  83.5329
 49.0636  6976.62  82.9728
 49.2616  6766.48  81.7489
 49.4596  6990.03  82.6498
 49.6576  6917.97  82.4486
 49.8556  6838.12  81.9907
 50.0536  6799.62  82.1945
 50.2516  6844.01  82.6039
 50.4496  6768.3  81.7978
 50.6476  6855.17  82.0096
 50.8456  6811.61  81.833
 51.0436  6731.85  81.7896
 51.2416  6601.9  80.6778
 51.4396  6458.57  80.1845
 51.6376  6544.09  80.5374
 51.8356  6597.72  80.5002
 52.0336  6539.03  80.6583
 52.2316  6492.41  80.7175
 52.4296  6489.38  80.3913
 52.6276  6429.3  80.1368
 52.8256  6504.63  80.1607
 53.0236  6402.37  80.155
 53.2216  6320.98  79.6517
 53.4196  6253.25  79.1694
 53.6176  6213.52  79.3953
 53.8156  6259.31  79.3639
 54.0136  6248.52  79.4673
 54.2116  6288.58  79.3898
 54.4096  6320.86  79.637
 54.6076  6253.58  79.5658
 54.8056  6150.2  78.6912
 55.0036  6160.39  79.0207
 55.2016  6243.79  79.1556
 55.3996  6203.11  78.9389
 55.5976  6142.91  78.7381
 55.7956  6199.48  78.9201
 55.9936  6149.13  78.7303
 56.1916  6131.29  78.6271
 56.3896  6212.3  79.1418
 56.5876  6024.21  78.4844
 56.7856  6095.12  78.4325
 56.9836  6020.4  77.7372
 57.1816  6134.3  78.8445
 57.3796  6201.36  79.0652
 57.5776  6133.94  78.5667
 57.7756  6049.07  78.6566
 57.9736  6165.45  79.0816
 58.1716  6102.33  78.9169
 58.3696  6084.75  78.5477
 58.5676  6138.06  78.368
 58.7656  6149.12  79.111
 58.9636  6073.28  78.6578
 59.1616  6210.19  79.6641
 59.3596  6298.1  79.487
 59.5576  6148.08  78.5918
 59.7556  6123.95  78.8585
 59.9536  6265.2  79.6598
 60.1516  5980.64  78.6744
 60.1996  0.0000000E+00  0.0000000E+00