Folder: echemistpy/docs/examples/opeando_xrd/IS17_D/Data/IS17_D (part 2)

File: 17_Da_f00006.xye
# /beamlines/bl04/projects/cycle2025-II/20250340211-lsimonelli/DATA/IS17_D/17_Da_f00006.xye : mythproc.py merge -s 0.006 -l 0.5 -f /beamlines/bl04/inhouse/ff/FlatField/ff_20Nov2024rod8mm60s_17keV.raw -b True -c true -o xye /beamlines/bl04/projects/cycle2025-II/20250340211-lsimonelli/DATA/IS17_D/17_Da_00006.dat
# IsMon = [6741878, 6742266, 6744574]  IsPos = [-1.5000, -2.4885, -3.4988]
# Wave = 0.4962  CalPath /beamlines/bl04/projects/cycle2025-II/20250340211-lsimonelli/DATA/Align/Si_Pos1_25keV_f00001.cal
# Date = 2025-09-23_19:13:56 Dt = 4.8000  Bin = 0.0060  <imon> = 6742906 +/- 1190 (Min/Max) 6741878 / 6744574
# icurr 249.2862  mocoIn 1.7012E-05  mocoOut 0.7982  i15 7.05584e+06  imon 6.74291e+06  i7 6.6667  iEMpd_timer 4.8000  iEMpd_1 3.4754E-08  iEMpd_2 7.7303E-08  iEMpd_3 1.6304E-08  iEMpd_4 4.7673E-08  iEMhp_timer 4.8000  iEMhp_1 4.8722E-06  iEMhp_2 -2.4617E-08  iEMhp_3 -2.3701E-08  iEMhp_4 -2.0747E-08
#      9776
 1.7416  68959.9  262.698
 1.9396  44444.1  211.17
 2.1376  31304.3  177.219
 2.3356  27432.2  165.549
 2.5336  27745.2  167.076
 2.7316  24308.2  156.493
 2.9296  23033.7  152.494
 3.1276  22600.7  150.619
 3.3256  22271.4  149.193
 3.5236  24164.3  155.361
 3.7216  22177.5  149.895
 3.9196  21740  147.659
 4.1176  21464.3  146.493
 4.3156  22819.3  151.208
 4.5136  25319.3  158.283
 4.7116  26341.8  162.56
 4.9096  25538  159.511
 5.1076  25257.3  159.197
 5.3056  25653.6  160.172
 5.5036  25128.1  158.506
 5.7016  25637  159.99
 5.8996  26036.5  160.464
 6.0976  26853.5  164.373
 6.2956  27375.4  165.306
 6.4936  28106.1  166.711
 6.6916  28649.4  169.293
 6.8896  29513.9  171.693
 7.0876  30531  175.259
 7.2856  30190.2  173.436
 7.4836  30807.6  174.548
 7.6816  31496.3  177.011
 7.8796  32917.2  180.946
 8.0776  35360.5  188.525
 8.2756  36605.4  190.426
 8.4736  36826.4  190.816
 8.6716  36200.5  189.816
 8.8696  36631.6  191.407
 9.0676  35791  188.573
 9.2656  34225.6  185.073
 9.4636  33508.6  181.566
 9.6616  32863.8  180.569
 9.8596  31673.2  176.761
 10.0576  29913.8  172.438
 10.2556  28831.8  169.711
 10.4536  29571.7  171.478
 10.6516  28958.7  169.888
 10.8496  26656.2  162.411
 11.0476  26007.2  160.401
 11.2456  26387.6  162.148
 11.4436  26037.3  160.237
 11.6416  25234.1  158.101
 11.8396  23677.5  153.351
 12.0376  23701.7  153.052
 12.2356  23714.2  153.54
 12.4336  23520.1  152.436
 12.6316  22828.7  150.426
 12.8296  23410  151.986
 13.0276  23734.2  153.208
 13.2256  23671.3  153.364
 13.4236  23624.7  152.987
 13.6216  23281.6  151.889
 13.8196  23659  152.886
 14.0176  23163.8  151.557
 14.2156  22674.9  149.011
 14.4136  21333.2  145.872
 14.6116  21111.7  144.343
 14.8096  20494.1  142.196
 15.0076  19361.6  141.93
 15.2056  19144.9  137.047
 15.4036  17992.7  133.667
 15.6016  17652.7  131.498
 15.7996  17582.4  131.514
 15.9976  16693.5  131.028
 16.1956  16075.7  126.509
 16.3936  15873.5  124.906
 16.5916  15763.7  125.09
 16.7896  15732.7  125.029
 16.9876  15597.2  125.93
 17.1856  15223.6  122.821
 17.3836  14807.1  121.039
 17.5816  14391.5  119.799
 17.7796  14577.2  120.502
 17.9776  14303.8  120.132
 18.1756  14900.6  121.317
 18.3736  14461.9  120.029
 18.5716  13859.3  117.254
 18.7696  13885.4  116.947
 18.9676  13622.8  115.646
 19.1656  13542.9  115.85
 19.3636  13381.5  115.357
 19.5616  13473  115.921
 19.7596  13616.5  115.945
 19.9576  14137.9  118.199
 20.1556  13452.6  115.812
 20.3536  13124.4  113.779
 20.5516  12961.3  113.509
 20.7496  12500.8  111.33
 20.9476  12830.8  112.633
 21.1456  12756.2  112.63
 21.3436  12443.8  111.197
 21.5416  12411.6  111.055
 21.7396  12193.3  109.921
 21.9376  12390.2  110.57
 22.1356  12196.4  109.977
 22.3336  12149.5  109.879
 22.5316  12231  110.353
 22.7296  12059.3  108.961
 22.9276  12132.2  109.94
 23.1256  12476.5  110.975
 23.3236  12128.9  109.97
 23.5216  12114.1  109.558
 23.7196  11901.7  108.76
 23.9176  11792.1  107.803
 24.1156  11828.6  108.436
 24.3136  11525.5  107.824
 24.5116  11477  107.132
 24.7096  11195.5  105.631
 24.9076  10961.6  104.547
 25.1056  10866.7  104.283
 25.3036  10656.1  103.047
 25.5016  10725.1  103.407
 25.6996  10718.7  102.969
 25.8976  10640.6  103.026
 26.0956  10781.4  103.717
 26.2936  10556.7  102.289
 26.4916  10506.6  101.931
 26.6896  10239.6  100.914
 26.8876  10136.1  100.26
 27.0856  10312.1  101.135
 27.2836  10015.8  99.6077
 27.4816  10035.8  99.6346
 27.6796  9843.57  99.0485
 27.8776  9952.02  99.4565
 28.0756  9802.29  98.9847
 28.2736  9792.2  98.5237
 28.4716  9577.93  97.4841
 28.6696  9526.5  97.0761
 28.8676  9450.17  97.0212
 29.0656  9402.84  96.7605
 29.2636  9388.81  96.4105
 29.4616  9330.03  96.3616
 29.6596  9265.08  95.5998
 29.8576  9194.49  95.9082
 30.0556  9332.7  96.5032
 30.2536  9339.15  96.3346
 30.4516  9251.4  95.5409
 30.6496  9138.87  94.6874
 30.8476  9009.75  94.4508
 31.0456  9075.67  94.7574
 31.2436  9054.94  93.9288
 31.4416  8898.94  93.2902
 31.6396  9098.7  94.3859
 31.8376  8939.29  93.1109
 32.0356  9034.99  94.1666
 32.2336  8745.91  92.0438
 32.4316  8692.84  92.1644
 32.6296  8703.32  91.9919
 32.8276  8734.4  91.9993
 33.0256  8532.19  91.0056
 33.2236  8631.05  91.6752
 33.4216  8668.22  91.559
 33.6196  8525.85  91.0985
 33.8176  8508.05  91.163
 34.0156  8427.44  90.3558
 34.2136  8422.84  90.3682
 34.4116  8418.28  90.4798
 34.6096  8397.77  90.2552
 34.8076  8238.38  89.8064
 35.0056  8310.89  89.8873
 35.2036  8253.16  89.7867
 35.4016  8249.62  89.6895
 35.5996  8190.57  89.4018
 35.7976  8014.82  88.7081
 35.9956  8228.67  89.5267
 36.1936  8141.35  88.9157
 36.3916  8042.64  88.556
 36.5896  8078.15  90.1758
 36.7876  8047.37  88.9533
 36.9856  7943.7  88.4042
 37.1836  7928.54  87.439
 37.3816  7937.7  87.8464
 37.5796  7878.96  89.2162
 37.7776  7690.22  86.5556
 37.9756  7737.9  86.7141
 38.1736  7932.22  87.9852
 38.3716  7885.5  88.0001
 38.5696  7739.69  87.5519
 38.7676  7500.84  85.7124
 38.9656  7619.69  86.0367
 39.1636  7590.71  86.1012
 39.3616  7585.12  86.0332
 39.5596  7529.87  86.5397
 39.7576  7587.17  86.2532
 39.9556  7618.45  86.0846
 40.1536  7745.34  86.9948
 40.3516  7754  87.058
 40.5496  7830.89  87.5299
 40.7476  7711.66  87.0744
 40.9456  7746.23  87.0233
 41.1436  7742.76  86.7341
 41.3416  7727.63  86.978
 41.5396  7707.53  86.6745
 41.7376  7719.06  87.0002
 41.9356  7626.8  86.3378
 42.1336  7675.92  86.7662
 42.3316  7645.07  86.7842
 42.5296  7613.84  86.133
 42.7276  7691.3  86.8074
 42.9256  7619.57  86.2734
 43.1236  7399.1  85.1197
 43.3216  7583.45  86.0262
 43.5196  7455.39  85.2639
 43.7176  7400.93  85.3357
 43.9156  7394.66  85.2093
 44.1136  7368.04  84.614
 44.3116  7374.21  84.6604
 44.5096  7387.58  85.0469
 44.7076  7260.4  84.2431
 44.9056  7212.91  83.8384
 45.1036  7284.37  83.8858
 45.3016  7181.11  83.7784
 45.4996  7107.28  83.2865
 45.6976  7030.78  83.0079
 45.8956  7162.99  83.6099
 46.0936  7190.16  83.5345
 46.2916  7070.1  83.0524
 46.4896  7112.63  83.3372
 46.6876  7052.42  83.6736
 46.8856  7004.32  82.6573
 47.0836  6900.71  82.2908
 47.2816  6862.72  81.9453
 47.4796  6907.69  82.3228
 47.6776  6789.49  82.5322
 47.8756  6767.06  81.5909
 48.0736  6860.78  82.5999
 48.2716  6756.56  81.7956
 48.4696  6822.23  81.7882
 48.6676  6847.14  82.5152
 48.8656  6884.38  82.4724
 49.0636  6827.39  82.0828
 49.2616  6632.49  80.9318
 49.4596  6729.49  81.09
 49.6576  6574.58  80.3711
 49.8556  6522.33  80.0752
 50.0536  6628.4  81.157
 50.2516  6602.05  81.104
 50.4496  6559.72  80.5324
 50.6476  6490.76  79.7995
 50.8456  6525.09  80.0974
 51.0436  6465.21  80.156
 51.2416  6494.85  80.0185
 51.4396  6295.39  79.1676
 51.6376  6408.84  79.7053
 51.8356  6355.53  79.0169
 52.0336  6218.74  78.6452
 52.2316  6274.12  79.3402
 52.4296  6370.43  79.6485
 52.6276  6327.71  79.4921
 52.8256  6291.48  78.8187
 53.0236  6124  78.4022
 53.2216  6169.54  78.7019
 53.4196  5996.23  77.5368
 53.6176  6191.1  79.2583
 53.8156  6074.73  78.1915
 54.0136  6085.45  78.4209
 54.2116  6041.88  77.8171
 54.4096  6109.05  78.2934
 54.6076  6046.15  78.2333
 54.8056  5989.71  77.6588
 55.0036  5991.04  77.9272
 55.2016  6011.1  77.6631
 55.3996  6030.11  77.831
 55.5976  5993.68  77.7731
 55.7956  5945.81  77.2812
 55.9936  5954.02  77.4747
 56.1916  5994.78  77.7595
 56.3896  5988.32  77.7051
 56.5876  5946.36  77.9684
 56.7856  5922.19  77.3056
 56.9836  5906.29  76.9974
 57.1816  5982.34  77.8615
 57.3796  5975.41  77.6174
 57.5776  5928.2  77.2435
 57.7756  5899.7  77.6744
 57.9736  5884.71  77.26
 58.1716  6004.93  78.2791
 58.3696  5889.49  77.2873
 58.5676  6016.99  77.5974
 58.7656  5976.29  77.994
 58.9636  6007.93  78.2313
 59.1616  6089.17  78.8828
 59.3596  6032.02  77.7783
 59.5576  6147.23  78.5745
 59.7556  5943.89  77.6789
 59.9536  6060.95  78.3388
 60.1516  5975.94  78.6317
 60.1996  0.0000000E+00  0.0000000E+00

File: 17_Da_f00008.xye
# /beamlines/bl04/projects/cycle2025-II/20250340211-lsimonelli/DATA/IS17_D/17_Da_f00008.xye : mythproc.py merge -s 0.006 -l 0.5 -f /beamlines/bl04/inhouse/ff/FlatField/ff_20Nov2024rod8mm60s_17keV.raw -b True -c true -o xye /beamlines/bl04/projects/cycle2025-II/20250340211-lsimonelli/DATA/IS17_D/17_Da_00008.dat
# IsMon = [6760389, 6764579, 6763314]  IsPos = [-1.5000, -2.4884, -3.4988]
# Wave = 0.4962  CalPath /beamlines/bl04/projects/cycle2025-II/20250340211-lsimonelli/DATA/Align/Si_Pos1_25keV_f00001.cal
# Date = 2025-09-23_19:47:02 Dt = 4.8000  Bin = 0.0060  <imon> = 6762761 +/- 1755 (Min/Max) 6760389 / 6764579
# icurr 250.8176  mocoIn 1.7109E-05  mocoOut 0.8030  i15 7.07316e+06  imon 6.76276e+06  i7 5.0000  iEMpd_timer 4.8000  iEMpd_1 3.5598E-08  iEMpd_2 7.8280E-08  iEMpd_3 1.6479E-08  iEMpd_4 4.8121E-08  iEMhp_timer 4.8000  iEMhp_1 4.9000E-06  iEMhp_2 -2.4740E-08  iEMhp_3 -2.4632E-08  iEMhp_4 -2.0770E-08
#      9776
 1.7416  68045.8  260.977
 1.9396  43289.9  208.424
 2.1376  30572  175.151
 2.3356  27222.3  164.931
 2.5336  29561.5  172.476
 2.7316  24319  156.524
 2.9296  22495.1  150.696
 3.1276  22134.7  149.05
 3.3256  21609.3  146.947
 3.5236  23719.5  153.762
 3.7216  21477.1  147.506
 3.9196  21585.6  147.134
 4.1176  21149.5  145.418
 4.3156  22323.4  149.553
 4.5136  25340  158.34
 4.7116  26107.4  161.837
 4.9096  25357.3  158.948
 5.1076  24754  157.607
 5.3056  24963  158.006
 5.5036  24743.4  157.201
 5.7016  24972.3  157.901
 5.8996  25397.6  158.487
 6.0976  26261  162.549
 6.2956  26752.3  163.413
 6.4936  27727.5  165.585
 6.6916  27998.1  167.359
 6.8896  29154.2  170.645
 7.0876  29958.1  173.616
 7.2856  29705.1  172.039
 7.4836  30585.1  173.914
 7.6816  31146.8  176.029
 7.8796  32581.3  180.017
 8.0776  36575.1  191.726
 8.2756  36889.3  191.156
 8.4736  36658  190.37
 8.6716  36076.7  189.475
 8.8696  37415.8  193.459
 9.0676  36576.7  190.642
 9.2656  34000.1  184.481
 9.4636  33249.6  180.876
 9.6616  32486.5  179.543
 9.8596  31383.9  175.948
 10.0576  29674.6  171.729
 10.2556  28420.2  168.483
 10.4536  33219.5  181.739
 10.6516  33120.3  181.68
 10.8496  26531.7  162.034
 11.0476  26785.8  162.822
 11.2456  29197.4  170.556
 11.4436  25971.3  160.036
 11.6416  24623.2  156.173
 11.8396  23701  153.428
 12.0376  23379.8  152.03
 12.2356  25007.1  157.633
 12.4336  24103.5  154.311
 12.6316  22672.5  149.925
 12.8296  23414.9  152
 13.0276  23764.5  153.301
 13.2256  23221.3  151.897
 13.4236  23508.4  152.602
 13.6216  23223.7  151.706
 13.8196  24099.9  154.306
 14.0176  23146.6  151.494
 14.2156  22679.1  149.02
 14.4136  21322.7  145.844
 14.6116  21031.7  144.063
 14.8096  20190.3  141.14
 15.0076  19430  142.179
 15.2056  18771.6  135.698
 15.4036  18127.6  134.155
 15.6016  17658.6  131.513
 15.7996  17367.6  130.704
 15.9976  16418.1  129.939
 16.1956  16238.3  127.159
 16.3936  15634.4  123.974
 16.5916  15764.9  125.108
 16.7896  15588.6  124.467
 16.9876  15424  125.224
 17.1856  15383.7  123.457
 17.3836  14320.1  119.017
 17.5816  14302.8  119.421
 17.7796  14715.3  121.061
 17.9776  14652.2  121.592
 18.1756  16091.7  126.082
 18.3736  15413.3  123.909
 18.5716  13989  117.803
 18.7696  13946.8  117.201
 18.9676  13683.6  115.909
 19.1656  13654.4  116.326
 19.3636  13332.2  115.146
 19.5616  13473.8  115.927
 19.7596  13453.4  115.25
 19.9576  14028.1  117.733
 20.1556  13187.2  114.658
 20.3536  13045.4  113.427
 20.5516  12721.9  112.45
 20.7496  12468.4  111.193
 20.9476  13167.3  114.103
 21.1456  13142.9  114.316
 21.3436  12517.6  111.526
 21.5416  12544.6  111.647
 21.7396  12166.7  109.801
 21.9376  12501.8  111.071
 22.1356  12444.4  111.085
 22.3336  12395.1  110.998
 22.5316  12343.7  110.857
 22.7296  12022.1  108.782
 22.9276  11953.6  109.132
 23.1256  12561  111.348
 23.3236  12093.9  109.816
 23.5216  12019.1  109.142
 23.7196  12011.4  109.253
 23.9176  11876.5  108.195
 24.1156  11801.9  108.322
 24.3136  11542  107.898
 24.5116  11625.9  107.82
 24.7096  11234.9  105.813
 24.9076  11231.4  105.828
 25.1056  10932  104.86
 25.3036  10774.4  103.61
 25.5016  10881.5  104.167
 25.6996  10844.6  103.573
 25.8976  10858.5  104.075
 26.0956  10799.8  103.807
 26.2936  10659.5  102.778
 26.4916  10771.5  103.199
 26.6896  10426.2  101.831
 26.8876  10291.1  101.025
 27.0856  10311  101.175
 27.2836  10069.8  99.8744
 27.4816  10105.5  99.9861
 27.6796  10032.2  99.9966
 27.8776  10244.6  100.907
 28.0756  10007.2  100.011
 28.2736  9954.48  99.3374
 28.4716  9610.07  97.6492
 28.6696  9681.85  97.8644
 28.8676  9525.86  97.4137
 29.0656  9417.32  96.8349
 29.2636  9423.06  96.6608
 29.4616  9254.97  95.963
 29.6596  9347.86  96.0222
 29.8576  9191.13  95.8862
 30.0556  9477.93  97.2434
 30.2536  9153.22  95.366
 30.4516  9248.1  95.5321
 30.6496  9138.91  94.6946
 30.8476  9052.01  94.6798
 31.0456  9060.36  94.6879
 31.2436  9113.32  94.2424
 31.4416  8870.45  93.1401
 31.6396  9353.83  95.6958
 31.8376  8963.92  93.2317
 32.0356  8914.33  93.5287
 32.2336  8701.51  91.8173
 32.4316  8818.92  92.8261
 32.6296  8708.77  92.0817
 32.8276  8754.59  92.1095
 33.0256  8636.74  91.5583
 33.2236  8682.09  91.9453
 33.4216  8675.02  91.6025
 33.6196  8623.04  91.6104
 33.8176  8574.67  91.5136
 34.0156  8461.85  90.5311
 34.2136  8456  90.5446
 34.4116  8381.58  90.2852
 34.6096  8486.93  90.743
 34.8076  8247.79  89.844
 35.0056  8335.78  90.0261
 35.2036  8224.72  89.6285
 35.4016  8290.42  89.9055
 35.5996  8214.34  89.5309
 35.7976  8158.96  89.4991
 35.9956  8309.32  89.9644
 36.1936  8198.1  89.236
 36.3916  8106.21  88.9035
 36.5896  8158.11  90.1476
 36.7876  8130.33  89.4069
 36.9856  8015.08  88.796
 37.1836  7916.62  87.3687
 37.3816  7961.42  87.9716
 37.5796  7914.05  89.4151
 37.7776  7812.25  87.2507
 37.9756  7756.5  86.826
 38.1736  8017.24  88.4654
 38.3716  7894.86  88.0572
 38.5696  7702.51  87.345
 38.7676  7615.23  86.3632
 38.9656  7679.85  86.3716
 39.1636  7643.46  86.4272
 39.3616  7863.71  87.5895
 39.5596  7598.46  86.9302
 39.7576  7633.29  86.5177
 39.9556  7715.86  86.6255
 40.1536  7756.75  87.064
 40.3516  7841.52  87.5478
 40.5496  7791.29  87.521
 40.7476  7745.24  87.2694
 40.9456  7759.16  87.0901
 41.1436  7733.62  86.6854
 41.3416  7781.81  87.2773
 41.5396  7710.79  86.6939
 41.7376  7655.94  86.6478
 41.9356  7571.07  86.027
 42.1336  7652.07  86.6331
 42.3316  7583.24  86.4305
 42.5296  7733.88  86.8075
 42.7276  7654.44  86.6001
 42.9256  7659.23  86.489
 43.1236  7587.42  86.1983
 43.3216  7611.76  86.0872
 43.5196  7464.02  85.313
 43.7176  7444.9  85.5897
 43.9156  7375.07  85.0884
 44.1136  7399.96  84.7962
 44.3116  7353.62  84.5415
 44.5096  7325.18  84.6846
 44.7076  7390.29  84.9899
 44.9056  7437.36  85.1406
 45.1036  7373.25  84.4024
 45.3016  7281.25  84.3697
 45.4996  7180.81  83.7239
 45.6976  6994.58  82.8002
 45.8956  7213.91  83.9058
 46.0936  7094.33  82.974
 46.2916  7138.29  83.4492
 46.4896  7232.38  84.0276
 46.6876  7064.02  83.7333
 46.8856  7074.49  83.0762
 47.0836  6973.68  82.7311
 47.2816  6884.07  82.0727
 47.4796  6991.81  82.8064
 47.6776  6901.77  83.2078
 47.8756  6863.67  82.1686
 48.0736  6835.7  82.4515
 48.2716  6686.69  81.3621
 48.4696  6946.59  82.5364
 48.6676  6876.87  82.7
 48.8656  6853.18  82.2895
 49.0636  7036.39  83.3247
 49.2616  6740.91  81.5907
 49.4596  6829.03  81.6883
 49.6576  6675.49  80.9843
 49.8556  6740.89  81.4055
 50.0536  6736.5  81.8149
 50.2516  6623.09  81.2517
 50.4496  6595.05  80.7414
 50.6476  6607.85  80.5158
 50.8456  6624.29  80.6966
 51.0436  6457.43  80.1037
 51.2416  6371.24  79.2515
 51.4396  6302.99  79.2022
 51.6376  6283.49  78.9121
 51.8356  6412.7  79.3661
 52.0336  6219.39  78.6617
 52.2316  6283.54  79.4084
 52.4296  6281.18  79.0851
 52.6276  6357.34  79.6765
 52.8256  6370.87  79.3385
 53.0236  6231.67  79.085
 53.2216  6155.71  78.6043
 53.4196  6188.47  78.7704
 53.6176  6000.36  78.0247
 53.8156  6162.38  78.7463
 54.0136  6218.03  79.2759
 54.2116  6027.64  77.7246
 54.4096  6157.58  78.5977
 54.6076  6064  78.3505
 54.8056  5940.44  77.3391
 55.0036  5990.16  77.9182
 55.2016  6042.17  77.8661
 55.3996  5944.13  77.2696
 55.5976  5938.26  77.4207
 55.7956  6024.75  77.8027
 55.9936  5920.32  77.2568
 56.1916  5957.79  77.5139
 56.3896  6041.27  78.0466
 56.5876  5919.43  77.7948
 56.7856  5965.31  77.5904
 56.9836  5917.89  77.0702
 57.1816  6027.81  78.1598
 57.3796  6030.72  77.9734
 57.5776  6004.65  77.7412
 57.7756  5968.22  78.1243
 57.9736  5972.47  77.8342
 58.1716  5995.9  78.2249
 58.3696  5960.64  77.7436
 58.5676  6058.82  77.8597
 58.7656  6000.07  78.1427
 58.9636  6088.16  78.7542
 59.1616  5995.78  78.2707
 59.3596  5981.77  77.4597
 59.5576  6108.43  78.3326
 59.7556  5859.21  77.1299
 59.9536  6092.56  78.5493
 60.1516  5982.72  78.6828
 60.1996  0.0000000E+00  0.0000000E+00