Folder: echemistpy/docs/examples/opeando_xrd/IS17_D/Data/IS17_D (part 106)

File: 17_Db_f00115.xye
# /beamlines/bl04/projects/cycle2025-II/20250340211-lsimonelli/DATA/IS17_D/17_Db_f00115.xye : mythproc.py merge -s 0.006 -l 0.5 -f /beamlines/bl04/inhouse/ff/FlatField/ff_20Nov2024rod8mm60s_17keV.raw -b True -c true -o xye /beamlines/bl04/projects/cycle2025-II/20250340211-lsimonelli/DATA/IS17_D/17_Db_00115.dat
# IsMon = [6767032, 6767163, 6772044]  IsPos = [-1.4999, -2.4884, -3.4988]
# Wave = 0.4962  CalPath /beamlines/bl04/projects/cycle2025-II/20250340211-lsimonelli/DATA/Align/Si_Pos1_25keV_f00001.cal
# Date = 2025-09-25_01:45:18 Dt = 4.8000  Bin = 0.0060  <imon> = 6768746 +/- 2332 (Min/Max) 6767032 / 6772044
# icurr 251.3505  mocoIn 1.7143E-05  mocoOut 0.8051  i15 7.0944e+06  imon 6.76875e+06  i7 4.3333  iEMpd_timer 4.8000  iEMpd_1 3.4655E-08  iEMpd_2 7.9428E-08  iEMpd_3 1.7954E-08  iEMpd_4 4.8731E-08  iEMhp_timer 4.8000  iEMhp_1 4.9112E-06  iEMhp_2 -2.5398E-08  iEMhp_3 -2.3615E-08  iEMhp_4 -2.1593E-08
#      9776
 1.7416  70873.3  266.33
 1.9396  49121.6  222.01
 2.1376  36689.6  191.868
 2.3356  32638  180.584
 2.5336  30606.7  175.49
 2.7316  28380.7  169.108
 2.9296  27121.4  165.465
 3.1276  26789.1  163.981
 3.3256  25833.2  160.682
 3.5236  26965.8  163.962
 3.7216  24936  158.929
 3.9196  23959.8  154.977
 4.1176  24277.9  155.805
 4.3156  25046.3  158.406
 4.5136  27264.9  164.251
 4.7116  28366.8  168.686
 4.9096  27752  166.275
 5.1076  27474.3  166.035
 5.3056  27623.3  166.188
 5.5036  27387.8  165.4
 5.7016  27703.2  166.303
 5.8996  28268.8  167.218
 6.0976  29062.7  170.975
 6.2956  29127.7  170.51
 6.4936  29976.9  172.164
 6.6916  30282.8  174.029
 6.8896  31135.4  176.322
 7.0876  32073.1  179.711
 7.2856  32026.9  178.617
 7.4836  32421.2  179.051
 7.6816  33481.7  182.48
 7.8796  33872.4  183.541
 8.0776  35354.3  188.503
 8.2756  37308.6  192.24
 8.4736  37951.9  193.706
 8.6716  37132  192.241
 8.8696  38056.4  195.116
 9.0676  37226.3  192.296
 9.2656  36266.3  190.506
 9.4636  35254.5  186.26
 9.6616  34471.4  184.915
 9.8596  33933.8  182.952
 10.0576  31757.4  177.657
 10.2556  31014.8  176.028
 10.4536  29640.5  171.68
 10.6516  28893.8  169.715
 10.8496  27699  165.555
 11.0476  26989.8  163.443
 11.2456  26194.4  161.558
 11.4436  26425.1  161.424
 11.6416  27370.2  164.634
 11.8396  25272.4  158.417
 12.0376  24651  156.079
 12.2356  24268.2  155.299
 12.4336  24336.3  155.055
 12.6316  24375.8  155.45
 12.8296  24273.6  154.735
 13.0276  24596.1  155.959
 13.2256  25018.3  157.667
 13.4236  24795.3  156.738
 13.6216  25012.6  157.412
 13.8196  27340.2  163.993
 14.0176  24069.8  154.498
 14.2156  23845.9  152.797
 14.4136  22645.5  150.294
 14.6116  22435.9  148.789
 14.8096  21590.7  145.931
 15.0076  20597.1  146.472
 15.2056  19763.5  139.235
 15.4036  18769.9  136.52
 15.6016  18514.5  134.674
 15.7996  17930.9  132.804
 15.9976  17573.6  134.385
 16.1956  17185  130.754
 16.3936  16987.2  129.177
 16.5916  16670.8  128.628
 16.7896  16712.4  128.847
 16.9876  16542.9  129.673
 17.1856  16338.7  127.249
 17.3836  16040  125.986
 17.5816  15351.2  123.726
 17.7796  15191.8  123.007
 17.9776  14777.7  122.091
 18.1756  14787  120.879
 18.3736  14475  120.079
 18.5716  14419.5  119.596
 18.7696  14539  119.659
 18.9676  14266.5  118.327
 19.1656  13954.4  117.607
 19.3636  14040.8  118.174
 19.5616  13976.2  118.063
 19.7596  14273.9  118.72
 19.9576  14282.5  118.8
 20.1556  15048.5  122.478
 20.3536  14068.4  117.806
 20.5516  13641.1  116.439
 20.7496  13243  114.668
 20.9476  13371.2  114.981
 21.1456  13109.6  114.173
 21.3436  13001.2  113.645
 21.5416  12926  113.337
 21.7396  12887.8  113.007
 21.9376  12797.1  112.379
 22.1356  12754.8  112.323
 22.3336  12583.2  111.85
 22.5316  12732.2  112.593
 22.7296  12449.6  110.707
 22.9276  12260.6  110.525
 23.1256  12596.3  111.501
 23.3236  12939.2  113.592
 23.5216  12660.5  111.998
 23.7196  12544.8  111.437
 23.9176  12644.2  111.623
 24.1156  12634.3  112.053
 24.3136  11935.9  109.727
 24.5116  12138.3  110.173
 24.7096  11782.7  108.354
 24.9076  11721.8  108.109
 25.1056  11405.2  107.104
 25.3036  11147.7  105.39
 25.5016  11088.4  105.152
 25.6996  10978.1  104.21
 25.8976  11185.9  105.628
 26.0956  10964.5  104.58
 26.2936  11049.9  104.654
 26.4916  11213  105.281
 26.6896  10999.1  104.573
 26.8876  10917.6  104.04
 27.0856  10594.4  102.549
 27.2836  10524.3  102.101
 27.4816  10511.8  101.979
 27.6796  10224.5  100.939
 27.8776  10485.3  102.073
 28.0756  10155.2  100.741
 28.2736  10121.3  100.156
 28.4716  9962.92  99.4252
 28.6696  9985.74  99.3894
 28.8676  9860.95  99.1071
 29.0656  9720.88  98.3835
 29.2636  9774.73  98.4487
 29.4616  9510.3  97.2857
 29.6596  9465.99  96.6284
 29.8576  9336.87  96.6447
 30.0556  9396.18  96.8203
 30.2536  9508.55  97.1984
 30.4516  9563.16  97.1076
 30.6496  9611.66  97.0966
 30.8476  9559.48  97.2794
 31.0456  9608.84  97.4951
 31.2436  9623.23  96.8247
 31.4416  9392.42  95.8553
 31.6396  9390.42  95.8866
 31.8376  9365.73  95.2767
 32.0356  9261.68  95.3094
 32.2336  9325.28  95.0521
 32.4316  9109.54  94.3403
 32.6296  9043.3  93.8362
 32.8276  9113.96  93.9831
 33.0256  8975.05  93.3162
 33.2236  8996.91  93.5896
 33.4216  9029.34  93.4384
 33.6196  8998.73  93.5837
 33.8176  8877.31  93.1166
 34.0156  8837.39  92.5298
 34.2136  8939.44  93.0844
 34.4116  8574.54  91.3289
 34.6096  8654.08  91.633
 34.8076  8618.15  91.8587
 35.0056  8649.09  91.6697
 35.2036  8818.9  92.8225
 35.4016  8528.7  91.1869
 35.5996  8524.49  91.1996
 35.7976  8447.25  91.0505
 35.9956  8713.81  92.1315
 36.1936  8457.4  90.6011
 36.3916  8376.75  90.3779
 36.5896  8307.39  90.9927
 36.7876  8070.54  89.0728
 36.9856  7918.02  88.2542
 37.1836  8265.83  89.2755
 37.3816  8036.68  88.3858
 37.5796  8239.15  91.2375
 37.7776  8290.54  89.8734
 37.9756  8269.07  89.6411
 38.1736  8213.11  89.5105
 38.3716  8307.21  90.3089
 38.5696  7988.89  88.9444
 38.7676  7983.09  88.4277
 38.9656  7963.34  87.9445
 39.1636  8163.45  89.328
 39.3616  8062.47  88.7041
 39.5596  7845.97  88.3395
 39.7576  7887.25  87.9485
 39.9556  8076.21  88.636
 40.1536  8103.6  88.9799
 40.3516  8084.58  88.8876
 40.5496  8087.12  89.1591
 40.7476  8122.98  89.3616
 40.9456  8152.8  89.2836
 41.1436  8101.79  88.7221
 41.3416  7923.24  88.0677
 41.5396  7947.52  88.0131
 41.7376  7970.47  88.397
 41.9356  7857.68  87.629
 42.1336  8195.93  89.6371
 42.3316  7946.27  88.4658
 42.5296  7977.5  88.1565
 42.7276  7951.11  88.2612
 42.9256  7930.85  88.0138
 43.1236  7908.03  87.9933
 43.3216  7928.17  87.8455
 43.5196  7775.24  87.0621
 43.7176  7887.79  88.09
 43.9156  7614.7  86.4614
 44.1136  7635.33  86.1357
 44.3116  7622.92  86.074
 44.5096  7676.19  86.6895
 44.7076  7631.26  86.3659
 44.9056  7824.72  87.3196
 45.1036  7706.89  86.2689
 45.3016  7680.79  86.6282
 45.4996  7668.27  86.5083
 45.6976  7660.03  86.6355
 45.8956  7627.57  86.2819
 46.0936  7855.19  87.5652
 46.2916  7654.86  86.424
 46.4896  7765.92  87.0777
 46.6876  7585.2  86.7833
 46.8856  7578.71  85.9763
 47.0836  7536.08  85.9941
 47.2816  7475.2  85.5248
 47.4796  7519.98  85.8765
 47.6776  7372.21  86.0012
 47.8756  7454.36  85.6311
 48.0736  7484.41  86.2701
 48.2716  7354.26  85.3303
 48.4696  7558.17  86.0848
 48.6676  7497.79  86.3448
 48.8656  7505.02  86.0962
 49.0636  7547.38  86.2958
 49.2616  7315.35  84.9969
 49.4596  7397.33  85.0268
 49.6576  7330.97  84.8731
 49.8556  7426.7  85.4427
 50.0536  7408.46  85.7927
 50.2516  7370.27  85.7129
 50.4496  7289.2  84.8936
 50.6476  7350.66  84.9195
 50.8456  7268.73  84.528
 51.0436  7130.68  84.1762
 51.2416  7038.28  83.2958
 51.4396  7058.45  83.8284
 51.6376  7094.65  83.8662
 51.8356  7116.69  83.6113
 52.0336  7027.92  83.6011
 52.2316  7126.79  84.5557
 52.4296  7022.08  83.6224
 52.6276  7003.48  83.6245
 52.8256  7216.39  84.4342
 53.0236  7177.9  84.8783
 53.2216  7110.23  84.518
 53.4196  7067.32  84.1459
 53.6176  6985.94  84.1875
 53.8156  6995.53  83.9128
 54.0136  6688.75  82.2144
 54.2116  6864.41  82.9019
 54.4096  6711.26  82.057
 54.6076  6693.71  82.2972
 54.8056  6578.72  81.3584
 55.0036  6647.93  82.2044
 55.2016  6797.65  82.617
 55.3996  6503.24  80.8012
 55.5976  6606.98  81.6498
 55.7956  6585.62  81.318
 55.9936  6661.97  81.9129
 56.1916  6516.75  81.0523
 56.3896  6281.11  79.5564
 56.5876  6403.38  80.8688
 56.7856  6303.71  79.7505
 56.9836  6478.51  80.6236
 57.1816  6601.96  81.7631
 57.3796  6353.33  80.0237
 57.5776  6391.57  80.1545
 57.7756  6245.96  79.9027
 57.9736  6313.64  79.9887
 58.1716  6208.86  79.5886
 58.3696  6023.55  78.16
 58.5676  6106  78.1602
 58.7656  5962.92  77.9091
 58.9636  6042.04  78.4432
 59.1616  6057.41  78.6856
 59.3596  6069.4  78.0094
 59.5576  6035.31  77.8466
 59.7556  5953.3  77.731
 59.9536  5956.86  77.6539
 60.1516  6039.21  79.0374
 60.1996  0.0000000E+00  0.0000000E+00

File: 17_Db_f00116.xye
# /beamlines/bl04/projects/cycle2025-II/20250340211-lsimonelli/DATA/IS17_D/17_Db_f00116.xye : mythproc.py merge -s 0.006 -l 0.5 -f /beamlines/bl04/inhouse/ff/FlatField/ff_20Nov2024rod8mm60s_17keV.raw -b True -c true -o xye /beamlines/bl04/projects/cycle2025-II/20250340211-lsimonelli/DATA/IS17_D/17_Db_00116.dat
# IsMon = [6775669, 6773904, 6776658]  IsPos = [-1.5000, -2.4884, -3.4988]
# Wave = 0.4962  CalPath /beamlines/bl04/projects/cycle2025-II/20250340211-lsimonelli/DATA/Align/Si_Pos1_25keV_f00001.cal
# Date = 2025-09-25_02:01:59 Dt = 4.8000  Bin = 0.0060  <imon> = 6775410 +/- 1139 (Min/Max) 6773904 / 6776658
# icurr 252.1098  mocoIn 1.7201E-05  mocoOut 0.8072  i15 7.10114e+06  imon 6.77541e+06  i7 6.6667  iEMpd_timer 4.8000  iEMpd_1 3.3977E-08  iEMpd_2 8.0167E-08  iEMpd_3 1.6776E-08  iEMpd_4 4.8978E-08  iEMhp_timer 4.8000  iEMhp_1 4.9261E-06  iEMhp_2 -2.3616E-08  iEMhp_3 -2.4793E-08  iEMhp_4 -2.1070E-08
#      9776
 1.7416  70866.6  266.279
 1.9396  49406.2  222.617
 2.1376  36634.5  191.696
 2.3356  32835.7  181.104
 2.5336  30963.6  176.484
 2.7316  28499.3  169.447
 2.9296  27270.3  165.909
 3.1276  26675.9  163.619
 3.3256  25851.6  160.736
 3.5236  27176.5  164.594
 3.7216  24954.8  158.99
 3.9196  24362.1  156.282
 4.1176  24212  155.591
 4.3156  25177.5  158.828
 4.5136  27391.1  164.631
 4.7116  28488.6  169.044
 4.9096  27729.7  166.205
 5.1076  27618.4  166.457
 5.3056  27538.2  165.934
 5.5036  27185  164.785
 5.7016  27793  166.578
 5.8996  28193.1  166.993
 6.0976  28978  170.722
 6.2956  29329.8  171.099
 6.4936  30290.6  173.06
 6.6916  30386.2  174.334
 6.8896  31287.9  176.749
 7.0876  32696.6  181.352
 7.2856  32264.9  179.281
 7.4836  32421.2  179.055
 7.6816  33321.4  182.031
 7.8796  34246.2  184.566
 8.0776  35623.7  189.234
 8.2756  37399.6  192.491
 8.4736  37636.2  192.914
 8.6716  37418  192.99
 8.8696  37964.4  194.88
 9.0676  37390.1  192.714
 9.2656  36298.5  190.578
 9.4636  35106.4  185.877
 9.6616  34575.6  185.202
 9.8596  33943.1  182.956
 10.0576  31938.9  178.162
 10.2556  31017.5  176.023
 10.4536  29725.7  171.915
 10.6516  28943  169.846
 10.8496  27929  166.243
 11.0476  27192.8  164.059
 11.2456  26371.6  162.103
 11.4436  26734.5  162.374
 11.6416  27565.1  165.227
 11.8396  25441.2  158.937
 12.0376  24752.2  156.411
 12.2356  24267  155.292
 12.4336  24224.8  154.698
 12.6316  24322.1  155.276
 12.8296  24483  155.393
 13.0276  24678.1  156.229
 13.2256  25122.4  157.994
 13.4236  25107.1  157.719
 13.6216  24995.9  157.355
 13.8196  27407.8  164.227
 14.0176  24139.8  154.725
 14.2156  23972.3  153.199
 14.4136  22748.7  150.641
 14.6116  22365.8  148.557
 14.8096  21708.4  146.336
 15.0076  20677.3  146.744
 15.2056  19664.5  138.899
 15.4036  18856.6  136.846
 15.6016  18558.2  134.843
 15.7996  17853.8  132.526
 15.9976  17698.2  134.875
 16.1956  17176.7  130.735
 16.3936  17069.7  129.507
 16.5916  16653.7  128.563
 16.7896  17043.3  130.11
 16.9876  16619.4  129.973
 17.1856  16388.3  127.436
 17.3836  15972  125.705
 17.5816  15578.8  124.636
 17.7796  15154.8  122.857
 17.9776  14948.7  122.79
 18.1756  14833.2  121.065
 18.3736  14591.6  120.562
 18.5716  14533.7  120.068
 18.7696  14488.1  119.444
 18.9676  14515.9  119.346
 19.1656  14043.3  117.979
 19.3636  14186  118.779
 19.5616  14118.9  118.67
 19.7596  14208.8  118.433
 19.9576  14508.7  119.72
 20.1556  14950.7  122.087
 20.3536  14065.7  117.793
 20.5516  13576.5  116.177
 20.7496  13481.1  115.613
 20.9476  13320.4  114.761
 21.1456  13130.4  114.265
 21.3436  12984.5  113.578
 21.5416  12973.4  113.545
 21.7396  12901.6  113.07
 21.9376  12782.5  112.32
 22.1356  12976.8  113.445
 22.3336  12644.6  112.128
 22.5316  12656.8  112.272
 22.7296  12587.4  111.318
 22.9276  12602.6  112.066
 23.1256  12689.9  111.927
 23.3236  13079.8  114.208
 23.5216  12788.4  112.563
 23.7196  12792.4  112.75
 23.9176  12602.7  111.443
 24.1156  12383.1  110.915
 24.3136  12241.7  111.118
 24.5116  12306  110.922
 24.7096  11815.6  108.49
 24.9076  11693  107.97
 25.1056  11341.2  106.79
 25.3036  11234.1  105.805
 25.5016  11279.8  106.047
 25.6996  11044.4  104.526
 25.8976  11236.3  105.855
 26.0956  10996.2  104.739
 26.2936  11108  104.929
 26.4916  11302.1  105.687
 26.6896  11044.8  104.791
 26.8876  10837  103.659
 27.0856  10601.6  102.582
 27.2836  10484.4  101.902
 27.4816  10389.5  101.385
 27.6796  10360.1  101.606
 27.8776  10525.9  102.271
 28.0756  10181.9  100.875
 28.2736  10156.5  100.338
 28.4716  9916.19  99.1901
 28.6696  10094.7  99.922
 28.8676  9933.13  99.4759
 29.0656  9792.99  98.7388
 29.2636  9889.73  99.0277
 29.4616  9424.68  96.8513
 29.6596  9582.4  97.2281
 29.8576  9538.03  97.6861
 30.0556  9403.85  96.8715
 30.2536  9537.6  97.3567
 30.4516  9665.47  97.6362
 30.6496  9641.88  97.2562
 30.8476  9534.81  97.1475
 31.0456  9605.44  97.4731
 31.2436  9515.04  96.2735
 31.4416  9428.66  96.0308
 31.6396  9462.98  96.238
 31.8376  9404.51  95.4662
 32.0356  9398.33  96.0221
 32.2336  9416.47  95.5038
 32.4316  9065.6  94.1159
 32.6296  8983.82  93.5303
 32.8276  9145.43  94.1464
 33.0256  9060.32  93.7664
 33.2236  9125.06  94.2491
 33.4216  9037.3  93.4792
 33.6196  8934.5  93.2562
 33.8176  8933.23  93.4014
 34.0156  8910.45  92.9126
 34.2136  8961.79  93.1972
 34.4116  8684.77  91.9192
 34.6096  8774.48  92.2654
 34.8076  8676.27  92.1646
 35.0056  8657.89  91.7385
 35.2036  8927.29  93.3874
 35.4016  8581.3  91.4724
 35.5996  8595.58  91.5844
 35.7976  8552.83  91.6233
 35.9956  8730.68  92.2249
 36.1936  8568.69  91.2051
 36.3916  8485.16  90.9582
 36.5896  8421.51  91.6134
 36.7876  8319.67  90.4451
 36.9856  8118.97  89.3772
 37.1836  8066.73  88.1984
 37.3816  8098.53  88.7361
 37.5796  8165.06  90.825
 37.7776  8349.94  90.1943
 37.9756  8241.69  89.4907
 38.1736  8323.94  90.1295
 38.3716  8164.31  89.5381
 38.5696  8054.91  89.3071
 38.7676  7944.2  88.2068
 38.9656  8068.01  88.5239
 39.1636  8110.68  89.0171
 39.3616  8115.42  88.9927
 39.5596  7975.91  89.068
 39.7576  7843.31  87.7059
 39.9556  8055.96  88.521
 40.1536  8187.99  89.4394
 40.3516  8154.81  89.2686
 40.5496  8034.38  88.873
 40.7476  8023.67  88.8123
 40.9456  8226.21  89.6816
 41.1436  8190.66  89.2021
 41.3416  7988.03  88.4309
 41.5396  7961.7  88.0836
 41.7376  7922.98  88.1371
 41.9356  7906.53  87.9096
 42.1336  8152.2  89.3967
 42.3316  7876.89  88.0924
 42.5296  8060.96  88.6223
 42.7276  7953.79  88.2733
 42.9256  8028.43  88.556
 43.1236  7890.25  87.8841
 43.3216  8005.16  88.2819
 43.5196  7900.13  87.7621
 43.7176  7915.38  88.2477
 43.9156  7672.28  86.801
 44.1136  7628.99  86.1014
 44.3116  7735.14  86.7151
 44.5096  7585.01  86.1816
 44.7076  7694.24  86.7279
 44.9056  7856.2  87.4941
 45.1036  7704.85  86.2682
 45.3016  7772.13  87.1532
 45.4996  7681.17  86.5768
 45.6976  7635  86.4965
 45.8956  7710.89  86.7437
 46.0936  7690.56  86.3815
 46.2916  7634.3  86.2928
 46.4896  7620.13  86.2327
 46.6876  7677.71  87.2999
 46.8856  7507.56  85.5679
 47.0836  7615.16  86.4457
 47.2816  7535.13  85.8677
 47.4796  7694.01  86.8818
 47.6776  7416.34  86.2514
 47.8756  7523.78  86.0348
 48.0736  7564.92  86.7341
 48.2716  7422  85.727
 48.4696  7716.91  86.979
 48.6676  7449.09  86.0634
 48.8656  7527.93  86.2418
 49.0636  7618.91  86.7029
 49.2616  7372.45  85.3281
 49.4596  7494.98  85.573
 49.6576  7447.77  85.546
 49.8556  7412.59  85.3645
 50.0536  7477.74  86.1994
 50.2516  7386.42  85.8039
 50.4496  7369.74  85.3598
 50.6476  7414  85.2773
 50.8456  7410.16  85.3539
 51.0436  7142.89  84.2527
 51.2416  7144.16  83.9272
 51.4396  7127.39  84.2415
 51.6376  7051.38  83.6144
 51.8356  7202.16  84.1017
 52.0336  7099.63  84.0244
 52.2316  7193.53  84.9508
 52.4296  7151.81  84.3947
 52.6276  7076.96  84.061
 52.8256  7229.06  84.5094
 53.0236  7162.01  84.7775
 53.2216  7037.1  84.0493
 53.4196  7067.34  84.158
 53.6176  6972.04  84.1024
 53.8156  6909.12  83.3809
 54.0136  6667.14  82.0765
 54.2116  6942.75  83.3836
 54.4096  6737.25  82.2089
 54.6076  6774.6  82.7923
 54.8056  6698.54  82.0969
 55.0036  6800.78  82.9908
 55.2016  6730.34  82.1317
 55.3996  6592.15  81.3662
 55.5976  6640.53  81.8418
 55.7956  6632.47  81.6117
 55.9936  6678.88  82.022
 56.1916  6477.17  80.8104
 56.3896  6461.39  80.6997
 56.5876  6359.56  80.6213
 56.7856  6433.92  80.5725
 56.9836  6511.82  80.8239
 57.1816  6573.18  81.5777
 57.3796  6361.37  80.0731
 57.5776  6389.13  80.123
 57.7756  6291.17  80.1971
 57.9736  6233.22  79.4825
 58.1716  6236.28  79.7658
 58.3696  6039.07  78.2628
 58.5676  6120.19  78.2468
 58.7656  6086.05  78.716
 58.9636  6056  78.5425
 59.1616  6053.34  78.6577
 59.3596  6125.46  78.3794
 59.5576  6031.17  77.8317
 59.7556  5944.27  77.6838
 59.9536  6085.02  78.4967
 60.1516  6102.87  79.4649
 60.1996  0.0000000E+00  0.0000000E+00