Folder: echemistpy/docs/examples/opeando_xrd/IS17_D/Data/IS17_D (part 77)

File: 17_Db_f00042.xye
# /beamlines/bl04/projects/cycle2025-II/20250340211-lsimonelli/DATA/IS17_D/17_Db_f00042.xye : mythproc.py merge -s 0.006 -l 0.5 -f /beamlines/bl04/inhouse/ff/FlatField/ff_20Nov2024rod8mm60s_17keV.raw -b True -c true -o xye /beamlines/bl04/projects/cycle2025-II/20250340211-lsimonelli/DATA/IS17_D/17_Db_00042.dat
# IsMon = [6774726, 6779100, 6778925]  IsPos = [-1.4999, -2.4884, -3.4988]
# Wave = 0.4962  CalPath /beamlines/bl04/projects/cycle2025-II/20250340211-lsimonelli/DATA/Align/Si_Pos1_25keV_f00001.cal
# Date = 2025-09-24_05:23:05 Dt = 4.8000  Bin = 0.0060  <imon> = 6777584 +/- 2022 (Min/Max) 6774726 / 6779100
# icurr 251.8108  mocoIn 1.7185E-05  mocoOut 0.8067  i15 7.0963e+06  imon 6.77758e+06  i7 5.6667  iEMpd_timer 4.8000  iEMpd_1 3.4424E-08  iEMpd_2 7.6882E-08  iEMpd_3 1.6091E-08  iEMpd_4 4.8223E-08  iEMhp_timer 4.8000  iEMhp_1 4.9215E-06  iEMhp_2 -2.6356E-08  iEMhp_3 -2.4075E-08  iEMhp_4 -2.1031E-08
#      9776
 1.7416  71722.1  267.943
 1.9396  49614.6  223.14
 2.1376  36627.2  191.72
 2.3356  32465.2  180.12
 2.5336  30432.8  175.005
 2.7316  28208.9  168.578
 2.9296  26923.8  164.86
 3.1276  26280.5  162.41
 3.3256  25366.5  159.205
 3.5236  27063.5  164.24
 3.7216  24637.8  157.978
 3.9196  24047.9  155.269
 4.1176  24009.8  154.943
 4.3156  24682.1  157.254
 4.5136  27191.5  164.021
 4.7116  28013.9  167.632
 4.9096  27372.3  165.134
 5.1076  26973.1  164.515
 5.3056  27040.3  164.424
 5.5036  26671.4  163.215
 5.7016  27088.9  164.454
 5.8996  27665.3  165.422
 6.0976  28446  169.153
 6.2956  28666.1  169.149
 6.4936  29423.2  170.559
 6.6916  29677.2  172.294
 6.8896  30446  174.356
 7.0876  31503.7  178.105
 7.2856  31426.3  176.932
 7.4836  31906.6  177.625
 7.6816  32497.4  179.774
 7.8796  33088  181.391
 8.0776  34787.8  186.979
 8.2756  36498.6  190.142
 8.4736  36898.4  190.989
 8.6716  36247.9  189.916
 8.8696  36827.2  191.961
 9.0676  35772.4  188.511
 9.2656  34786  186.597
 9.4636  33817.9  182.447
 9.6616  32997.5  180.944
 9.8596  32525  179.1
 10.0576  30362.2  173.693
 10.2556  29652.1  172.103
 10.4536  28389.1  168.004
 10.6516  27402  165.263
 10.8496  26478.6  161.875
 11.0476  25815.2  159.841
 11.2456  24992  157.793
 11.4436  25057.3  157.197
 11.6416  26740  162.728
 11.8396  24630.2  156.388
 12.0376  23851.2  153.541
 12.2356  23373.9  152.402
 12.4336  23484.3  152.313
 12.6316  23379.8  152.243
 12.8296  23488.9  152.218
 13.0276  23767.6  153.312
 13.2256  24266.1  155.284
 13.4236  24076.7  154.445
 13.6216  24216.6  154.892
 13.8196  26622.7  161.869
 14.0176  23306.3  152.022
 14.2156  22961.6  149.936
 14.4136  22056.1  148.332
 14.6116  21562.9  145.856
 14.8096  20889.2  143.544
 15.0076  19930.4  144.072
 15.2056  19070.9  136.772
 15.4036  18213.9  134.479
 15.6016  17911  132.456
 15.7996  17312.7  130.489
 15.9976  17163.6  132.806
 16.1956  16460.4  127.992
 16.3936  16440.6  127.115
 16.5916  16089.9  126.386
 16.7896  16006  126.11
 16.9876  15991.5  127.506
 17.1856  15825.8  125.214
 17.3836  15402.2  123.448
 17.5816  14921.5  121.975
 17.7796  14770.3  121.29
 17.9776  14354.3  120.329
 18.1756  14363.2  119.131
 18.3736  13933.6  117.81
 18.5716  13849  117.208
 18.7696  13754.6  116.382
 18.9676  13767.3  116.242
 19.1656  13400.8  115.25
 19.3636  13373.6  115.328
 19.5616  13319.9  115.256
 19.7596  13539  115.622
 19.9576  13578.9  115.82
 20.1556  14235.9  119.126
 20.3536  14005  117.541
 20.5516  13210.9  114.586
 20.7496  12963.9  113.461
 20.9476  12927.8  113.061
 21.1456  12739.1  112.545
 21.3436  12659.1  112.144
 21.5416  12455.8  111.254
 21.7396  12380  110.763
 21.9376  12375.8  110.513
 22.1356  12411.8  110.798
 22.3336  12052  109.452
 22.5316  12179.9  110.123
 22.7296  12142.8  109.322
 22.9276  11985.7  109.276
 23.1256  12148  109.505
 23.3236  12466.9  111.513
 23.5216  12431.2  110.988
 23.7196  12216.8  109.986
 23.9176  12305  110.139
 24.1156  12085  109.599
 24.3136  11777.4  108.982
 24.5116  11811  108.674
 24.7096  11456  106.832
 24.9076  11375.3  106.503
 25.1056  11057.6  105.456
 25.3036  10739.1  103.432
 25.5016  10879.2  104.153
 25.6996  10783.2  103.279
 25.8976  10787  103.735
 26.0956  10569.6  102.686
 26.2936  10660.8  102.793
 26.4916  10900.3  103.808
 26.6896  10608.9  102.698
 26.8876  10432.4  101.703
 27.0856  10382.2  101.518
 27.2836  10131.3  100.181
 27.4816  10129.2  100.109
 27.6796  10033  99.992
 27.8776  10306.8  101.2
 28.0756  9869.24  99.3093
 28.2736  9819.65  98.6495
 28.4716  9595.04  97.5687
 28.6696  9786.26  98.387
 28.8676  9597.78  97.785
 29.0656  9468.17  97.097
 29.2636  9529.53  97.2065
 29.4616  9136.88  95.3528
 29.6596  9295.98  95.7502
 29.8576  8952.95  94.6338
 30.0556  9016.53  94.8539
 30.2536  9179.97  95.5021
 30.4516  9313.32  95.8519
 30.6496  9281.69  95.4215
 30.8476  9194.01  95.4018
 31.0456  9332.96  96.0883
 31.2436  9367.61  95.5442
 31.4416  9190.76  94.8144
 31.6396  9138.35  94.5769
 31.8376  9221.46  94.5355
 32.0356  9085.57  94.3973
 32.2336  9148.68  94.15
 32.4316  8672.93  92.0494
 32.6296  8661.8  91.8276
 32.8276  8836.55  92.5412
 33.0256  8786.22  92.3375
 33.2236  8757.72  92.3374
 33.4216  8678.22  91.6008
 33.6196  8724.55  92.1427
 33.8176  8752.82  92.464
 34.0156  8570.35  91.12
 34.2136  8601.52  91.3115
 34.4116  8366.12  90.2118
 34.6096  8456.42  90.5746
 34.8076  8404.17  90.7133
 35.0056  8516.79  90.985
 35.2036  8642.52  91.8866
 35.4016  8433.09  90.6769
 35.5996  8296.42  89.9703
 35.7976  8253.9  90.0115
 35.9956  8424.1  90.5878
 36.1936  8372.52  90.1572
 36.3916  8155.65  89.18
 36.5896  8105.63  89.8813
 36.7876  7834.28  87.7624
 36.9856  7840.72  87.8172
 37.1836  7865.03  87.0812
 37.3816  7978.26  88.0672
 37.5796  7930.45  89.5145
 37.7776  8066.75  88.6603
 37.9756  8013.83  88.2559
 38.1736  8042.52  88.6022
 38.3716  8033.17  88.8147
 38.5696  7792.39  87.8455
 38.7676  7848.6  87.6771
 38.9656  7810.21  87.0991
 39.1636  7885.78  87.7902
 39.3616  7780.96  87.1335
 39.5596  7559.79  86.7083
 39.7576  7719.19  87.0096
 39.9556  7754.12  86.8444
 40.1536  7858.59  87.631
 40.3516  7964.49  88.2239
 40.5496  7793.02  87.5125
 40.7476  7847.06  87.8351
 40.9456  7921.5  88.0012
 41.1436  7905.75  87.6395
 41.3416  7711.39  86.8814
 41.5396  7764.99  86.9931
 41.7376  7785.32  87.3766
 41.9356  7682.72  86.6494
 42.1336  7891.33  87.9607
 42.3316  7708.31  87.1341
 42.5296  7835.75  87.3735
 42.7276  7836.46  87.6173
 42.9256  7667.92  86.5465
 43.1236  7679.86  86.7088
 43.3216  7720.85  86.6968
 43.5196  7631.62  86.2464
 43.7176  7636.92  86.6781
 43.9156  7355.74  84.9774
 44.1136  7374.78  84.6479
 44.3116  7468.7  85.2005
 44.5096  7375.33  84.9708
 44.7076  7331.61  84.6403
 44.9056  7577.85  85.94
 45.1036  7588.01  85.6216
 45.3016  7447.92  85.3198
 45.4996  7517.97  85.6606
 45.6976  7441.54  85.4015
 45.8956  7442.02  85.2211
 46.0936  7544.81  85.814
 46.2916  7518.3  85.6404
 46.4896  7445.28  85.2498
 46.6876  7370.13  85.5353
 46.8856  7402.9  84.9771
 47.0836  7250.17  84.3561
 47.2816  7298.55  84.5052
 47.4796  7330.87  84.799
 47.6776  7235.15  85.1894
 47.8756  7322.02  84.8682
 48.0736  7293.56  85.1718
 48.2716  7258.4  84.7723
 48.4696  7377.19  85.0486
 48.6676  7417.82  85.8932
 48.8656  7336.07  85.1338
 49.0636  7390.9  85.405
 49.2616  7113.9  83.8154
 49.4596  7229.05  84.0463
 49.6576  7231.13  84.2939
 49.8556  7189.96  84.0718
 50.0536  7240.33  84.8078
 50.2516  7226.27  84.8728
 50.4496  7167.98  84.1794
 50.6476  7176.05  83.9042
 50.8456  7155.52  83.8716
 51.0436  6972.4  83.235
 51.2416  6930.14  82.6532
 51.4396  6860.74  82.6423
 51.6376  6861.32  82.4648
 51.8356  6902.62  82.3326
 52.0336  6902.3  82.8587
 52.2316  6945.92  83.4884
 52.4296  6837.4  82.5257
 52.6276  6804.22  82.4307
 52.8256  6929.53  82.7482
 53.0236  6905.02  83.2412
 53.2216  6909.3  83.3046
 53.4196  6889.99  83.1021
 53.6176  6891.18  83.6161
 53.8156  6795.34  82.6945
 54.0136  6510.54  81.1095
 54.2116  6761.37  82.298
 54.4096  6550.97  81.0642
 54.6076  6504.07  81.104
 54.8056  6447.65  80.5469
 55.0036  6519.03  81.4014
 55.2016  6613.89  81.4935
 55.3996  6375.5  80.0075
 55.5976  6354.73  80.0698
 55.7956  6452.31  80.4899
 55.9936  6525.51  81.0809
 56.1916  6350.5  80.0089
 56.3896  6193.54  78.9966
 56.5876  6168.01  79.388
 56.7856  6172.58  78.9239
 56.9836  6395.66  80.1033
 57.1816  6261.86  79.6204
 57.3796  6156.25  78.7735
 57.5776  6197.61  78.9253
 57.7756  6045.81  78.6105
 57.9736  6080.5  78.508
 58.1716  6109.5  78.956
 58.3696  5834.24  76.9157
 58.5676  5995.2  77.4423
 58.7656  5837.72  77.0843
 58.9636  5872.91  77.3464
 59.1616  5882.14  77.537
 59.3596  5928.6  77.1102
 59.5576  5948.48  77.2958
 59.7556  5741.36  76.3459
 59.9536  5914.16  77.3862
 60.1516  5925.03  78.298
 60.1996  0.0000000E+00  0.0000000E+00

File: 17_Db_f00044.xye
# /beamlines/bl04/projects/cycle2025-II/20250340211-lsimonelli/DATA/IS17_D/17_Db_f00044.xye : mythproc.py merge -s 0.006 -l 0.5 -f /beamlines/bl04/inhouse/ff/FlatField/ff_20Nov2024rod8mm60s_17keV.raw -b True -c true -o xye /beamlines/bl04/projects/cycle2025-II/20250340211-lsimonelli/DATA/IS17_D/17_Db_00044.dat
# IsMon = [6739669, 6741153, 6739099]  IsPos = [-1.5000, -2.4885, -3.4988]
# Wave = 0.4962  CalPath /beamlines/bl04/projects/cycle2025-II/20250340211-lsimonelli/DATA/Align/Si_Pos1_25keV_f00001.cal
# Date = 2025-09-24_05:56:05 Dt = 4.8000  Bin = 0.0060  <imon> = 6739974 +/- 866 (Min/Max) 6739099 / 6741153
# icurr 248.7371  mocoIn 1.6972E-05  mocoOut 0.7958  i15 7.06216e+06  imon 6.73997e+06  i7 5.3333  iEMpd_timer 4.8000  iEMpd_1 3.4722E-08  iEMpd_2 7.9005E-08  iEMpd_3 1.6334E-08  iEMpd_4 4.8953E-08  iEMhp_timer 4.8000  iEMhp_1 4.8606E-06  iEMhp_2 -2.4607E-08  iEMhp_3 -2.3562E-08  iEMhp_4 -2.0036E-08
#      9776
 1.7416  70536.7  265.67
 1.9396  49316.8  222.433
 2.1376  36827.6  192.208
 2.3356  32774.4  180.942
 2.5336  30818  176.076
 2.7316  28420.3  169.2
 2.9296  27020.5  165.146
 3.1276  26562.9  163.267
 3.3256  25655.4  160.096
 3.5236  27286.4  165.068
 3.7216  24649.6  158.018
 3.9196  24028  155.212
 4.1176  23971.9  154.811
 4.3156  24824.2  157.716
 4.5136  27181.1  163.989
 4.7116  28116.8  167.942
 4.9096  27652.2  165.969
 5.1076  27075.7  164.819
 5.3056  26997.5  164.315
 5.5036  26923.3  164.073
 5.7016  27156.3  164.656
 5.8996  27603.5  165.239
 6.0976  28600.8  169.618
 6.2956  28642.4  169.086
 6.4936  29414.5  170.536
 6.6916  29978.6  173.156
 6.8896  30781.8  175.311
 7.0876  32177.6  179.91
 7.2856  31543.8  177.27
 7.4836  31872.2  177.532
 7.6816  32796.3  180.607
 7.8796  33447.1  182.398
 8.0776  34941.8  187.41
 8.2756  36545.4  190.29
 8.4736  37203.7  191.796
 8.6716  36579.4  190.796
 8.8696  37358.8  193.339
 9.0676  36402.2  190.181
 9.2656  35401.8  188.235
 9.4636  34419.2  184.071
 9.6616  33692.1  182.851
 9.8596  32846.8  179.976
 10.0576  30677.4  174.587
 10.2556  29940.5  172.924
 10.4536  28906.2  169.514
 10.6516  27981.9  166.987
 10.8496  26790.3  162.823
 11.0476  25945.2  160.202
 11.2456  25280.9  158.703
 11.4436  25229.7  157.744
 11.6416  26797.6  162.916
 11.8396  24882.7  157.183
 12.0376  24140.4  154.455
 12.2356  23877.9  154.071
 12.4336  23616  152.743
 12.6316  23727.4  153.368
 12.8296  23958.1  153.724
 13.0276  24085.5  154.336
 13.2256  24652.7  156.515
 13.4236  24350.4  155.319
 13.6216  24518.5  155.856
 13.8196  26718.6  162.173
 14.0176  23688.6  153.272
 14.2156  23349.4  151.185
 14.4136  22154.8  148.662
 14.6116  21971.9  147.226
 14.8096  21181.5  144.557
 15.0076  20213.3  145.088
 15.2056  19282.6  137.536
 15.4036  18378.7  135.097
 15.6016  18181.7  133.466
 15.7996  17490.2  131.172
 15.9976  17176.9  132.883
 16.1956  17020.5  130.169
 16.3936  16698.6  128.094
 16.5916  16173.6  126.713
 16.7896  16200  126.876
 16.9876  16007.5  127.552
 17.1856  16036.8  126.047
 17.3836  15734.6  124.762
 17.5816  15173  122.994
 17.7796  14843.2  121.578
 17.9776  14291  120.071
 18.1756  14374.3  119.18
 18.3736  13984.3  118.023
 18.5716  13904.4  117.446
 18.7696  14021.3  117.504
 18.9676  13862.5  116.64
 19.1656  13601.9  116.122
 19.3636  13510.1  115.913
 19.5616  13462.5  115.875
 19.7596  13717.2  116.38
 19.9576  13803.2  116.788
 20.1556  14352.8  119.619
 20.3536  14158.7  118.176
 20.5516  13521.2  115.929
 20.7496  13178.7  114.31
 20.9476  13021.6  113.466
 21.1456  12834.9  112.974
 21.3436  12608.7  111.927
 21.5416  12694.4  112.319
 21.7396  12424.6  110.963
 21.9376  12558.2  111.334
 22.1356  12691.7  112.191
 22.3336  12155.9  109.916
 22.5316  12316.9  110.747
 22.7296  12300.7  110.049
 22.9276  12138.5  109.98
 23.1256  12279.1  110.104
 23.3236  12565.2  111.949
 23.5216  12564.8  111.584
 23.7196  12500.5  111.467
 23.9176  12433.3  110.697
 24.1156  12214.7  110.177
 24.3136  11755.5  108.885
 24.5116  11945.7  109.275
 24.7096  11448.9  106.791
 24.9076  11456.7  106.87
 25.1056  11000.3  104.903
 25.3036  10962.9  104.516
 25.5016  11016.5  104.804
 25.6996  10839.2  103.546
 25.8976  10971  104.611
 26.0956  10688  103.262
 26.2936  10647.9  102.729
 26.4916  10950.6  104.03
 26.6896  10558  102.451
 26.8876  10578.5  102.411
 27.0856  10434.3  101.731
 27.2836  10382.5  101.413
 27.4816  10135.6  100.139
 27.6796  9966.24  99.656
 27.8776  10220.4  100.776
 28.0756  9888.35  99.4127
 28.2736  9879.24  98.9548
 28.4716  9714.51  98.181
 28.6696  9859.79  98.7597
 28.8676  9590.6  97.7466
 29.0656  9554.76  97.536
 29.2636  9618.07  97.5721
 29.4616  9186.33  95.6195
 29.6596  9367.13  96.1259
 29.8576  9113.88  95.4883
 30.0556  9155.47  95.5844
 30.2536  9259.81  95.9246
 30.4516  9436.3  96.4806
 30.6496  9425.44  96.1618
 30.8476  9420.96  96.5757
 31.0456  9520.27  97.0532
 31.2436  9437.26  95.8935
 31.4416  9174.85  94.7242
 31.6396  9272.13  95.2687
 31.8376  9288.03  94.8743
 32.0356  9111.98  94.5367
 32.2336  9131.9  94.0518
 32.4316  8847.86  92.9727
 32.6296  8914.63  93.0972
 32.8276  9006.1  93.4273
 33.0256  8709.4  91.9437
 33.2236  8850.05  92.8169
 33.4216  8757.03  92.0291
 33.6196  8811.31  92.5948
 33.8176  8766.28  92.5338
 34.0156  8618.3  91.3759
 34.2136  8714.23  91.8997
 34.4116  8515.38  91.018
 34.6096  8463.41  90.6178
 34.8076  8361.28  90.4761
 35.0056  8524.25  91.0247
 35.2036  8652.83  91.9368
 35.4016  8399.42  90.4934
 35.5996  8393  90.4998
 35.7976  8275.11  90.1293
 35.9956  8512.84  91.0618
 36.1936  8389.49  90.2555
 36.3916  8234.75  89.6101
 36.5896  8112.32  90.3808
 36.7876  8018.2  88.7925
 36.9856  7884.47  88.0775
 37.1836  8034.2  88.022
 37.3816  7947.86  87.9083
 37.5796  8105.17  90.4926
 37.7776  8048.23  88.5523
 37.9756  8094.77  88.6911
 38.1736  7987.06  88.2893
 38.3716  7972.05  88.4839
 38.5696  7886.27  88.3711
 38.7676  7738.33  87.0419
 38.9656  7908.31  87.6331
 39.1636  7832.53  87.4556
 39.3616  7866.93  87.6099
 39.5596  7755.4  87.8192
 39.7576  7756.05  87.2182
 39.9556  7836.96  87.3115
 40.1536  7844.33  87.5497
 40.3516  7910.64  87.9241
 40.5496  7894.75  87.8862
 40.7476  7947.28  88.3828
 40.9456  7940.9  88.1114
 41.1436  8035.72  88.3563
 41.3416  7751.76  87.1137
 41.5396  7766.6  87.0032
 41.7376  7818.07  87.5535
 41.9356  7749.83  87.0179
 42.1336  7981.23  88.4646
 42.3316  7731.14  87.2691
 42.5296  7847.98  87.4429
 42.7276  7813.85  87.484
 42.9256  7797.06  87.2725
 43.1236  7615.33  86.3554
 43.3216  7735.96  86.8865
 43.5196  7673.08  86.4817
 43.7176  7693.7  86.9992
 43.9156  7523.42  85.9526
 44.1136  7483.77  85.2805
 44.3116  7529.96  85.5568
 44.5096  7421.63  85.2446
 44.7076  7490.18  85.5687
 44.9056  7653.77  86.3694
 45.1036  7563.61  85.4806
 45.3016  7504.22  85.6445
 45.4996  7498.7  85.5552
 45.6976  7413.41  85.2448
 45.8956  7451.19  85.2655
 46.0936  7597.51  85.8477
 46.2916  7400.2  84.9586
 46.4896  7534.12  85.7511
 46.6876  7537.12  86.4811
 46.8856  7367.11  84.7639
 47.0836  7421.62  85.3359
 47.2816  7256.24  84.2588
 47.4796  7452.83  85.4939
 47.6776  7305.53  85.6062
 47.8756  7340.55  84.9814
 48.0736  7317.21  85.2974
 48.2716  7275.46  84.8774
 48.4696  7430.32  85.3578
 48.6676  7446.56  86.0555
 48.8656  7401.55  85.5077
 49.0636  7313.52  84.9561
 49.2616  7196.64  84.3097
 49.4596  7356.62  84.7916
 49.6576  7329.02  84.8425
 49.8556  7240.72  84.3683
 50.0536  7227.39  84.7504
 50.2516  7263.15  85.0666
 50.4496  7247.46  84.6439
 50.6476  7183.65  83.9457
 50.8456  7288.53  84.6486
 51.0436  7033.82  83.6064
 51.2416  6960.76  82.8468
 51.4396  6975.57  83.3387
 51.6376  6943.62  82.961
 51.8356  6983.87  82.8264
 52.0336  6865.71  82.6348
 52.2316  6891.24  83.1571
 52.4296  6957.37  83.2504
 52.6276  6863.75  82.7886
 52.8256  7004.95  83.1968
 53.0236  6897.02  83.1935
 53.2216  6931.5  83.4085
 53.4196  6856.48  82.8917
 53.6176  6968.09  84.0675
 53.8156  6895.83  83.2955
 54.0136  6659.03  82.0372
 54.2116  6825.96  82.6775
 54.4096  6615.51  81.4643
 54.6076  6546.11  81.3916
 54.8056  6509  80.9305
 55.0036  6599.13  81.7639
 55.2016  6434.84  80.304
 55.3996  6440.34  80.4116
 55.5976  6376.85  80.2248
 55.7956  6483.24  80.6869
 55.9936  6544.02  81.1978
 56.1916  6393.3  80.2909
 56.3896  6266.93  79.4707
 56.5876  6216.17  79.6972
 56.7856  6239.5  79.3534
 56.9836  6368.4  79.9268
 57.1816  6366.36  80.2973
 57.3796  6162.88  78.8122
 57.5776  6217.11  79.0531
 57.7756  6130.97  79.1634
 57.9736  6178.26  79.1472
 58.1716  6083.61  78.7978
 58.3696  5893.32  77.3092
 58.5676  5952.42  77.1514
 58.7656  5880.1  77.3708
 58.9636  5903.18  77.5503
 59.1616  5910.29  77.7207
 59.3596  5842.42  76.5606
 59.5576  6032.07  77.8497
 59.7556  5947.12  77.7147
 59.9536  5947.7  77.6181
 60.1516  5839.99  77.7468
 60.1996  0.0000000E+00  0.0000000E+00