Folder: echemistpy/docs/examples/opeando_xrd/IS17_D/Data/IS17_D (part 102)

File: 17_Db_f00107.xye
# /beamlines/bl04/projects/cycle2025-II/20250340211-lsimonelli/DATA/IS17_D/17_Db_f00107.xye : mythproc.py merge -s 0.006 -l 0.5 -f /beamlines/bl04/inhouse/ff/FlatField/ff_20Nov2024rod8mm60s_17keV.raw -b True -c true -o xye /beamlines/bl04/projects/cycle2025-II/20250340211-lsimonelli/DATA/IS17_D/17_Db_00107.dat
# IsMon = [6751848, 6749791, 6750303]  IsPos = [-1.4999, -2.4885, -3.4988]
# Wave = 0.4962  CalPath /beamlines/bl04/projects/cycle2025-II/20250340211-lsimonelli/DATA/Align/Si_Pos1_25keV_f00001.cal
# Date = 2025-09-24_23:32:44 Dt = 4.8000  Bin = 0.0060  <imon> = 6750647 +/- 874 (Min/Max) 6749791 / 6751848
# icurr 249.6795  mocoIn 1.7031E-05  mocoOut 0.7988  i15 7.0746e+06  imon 6.75065e+06  i7 5.6667  iEMpd_timer 4.8000  iEMpd_1 3.5067E-08  iEMpd_2 7.7826E-08  iEMpd_3 1.6714E-08  iEMpd_4 4.7712E-08  iEMhp_timer 4.8000  iEMhp_1 4.8781E-06  iEMhp_2 -2.5515E-08  iEMhp_3 -2.4060E-08  iEMhp_4 -2.1080E-08
#      9776
 1.7416  70983.6  266.48
 1.9396  49111.8  221.944
 2.1376  36505  191.343
 2.3356  33031.3  181.629
 2.5336  30978.2  176.513
 2.7316  28725.6  170.11
 2.9296  27743.1  167.342
 3.1276  26922.8  164.371
 3.3256  25754.4  160.423
 3.5236  27177.2  164.727
 3.7216  24864.2  158.701
 3.9196  24068.8  155.347
 4.1176  24116.3  155.27
 4.3156  24884.4  157.906
 4.5136  27194  164.037
 4.7116  28210.3  168.222
 4.9096  27386.7  165.172
 5.1076  27088.1  164.852
 5.3056  27072.3  164.533
 5.5036  26972  164.223
 5.7016  27129.2  164.575
 5.8996  27838.5  165.939
 6.0976  28641.3  169.733
 6.2956  28714.2  169.302
 6.4936  29602  171.077
 6.6916  29960  173.111
 6.8896  30788.4  175.333
 7.0876  31734.5  178.754
 7.2856  31617.1  177.469
 7.4836  32051  178.029
 7.6816  32545.7  179.899
 7.8796  33548  182.681
 8.0776  34756.2  186.923
 8.2756  36564.9  190.342
 8.4736  37210.1  191.825
 8.6716  36553  190.748
 8.8696  37241.2  193.02
 9.0676  36475.2  190.349
 9.2656  35264.8  187.862
 9.4636  34300.8  183.741
 9.6616  33555.7  182.458
 9.8596  32799.1  179.835
 10.0576  30817  174.998
 10.2556  29897.4  172.799
 10.4536  28661.7  168.797
 10.6516  27932.3  166.844
 10.8496  26963.9  163.346
 11.0476  25957.4  160.246
 11.2456  25428.4  159.178
 11.4436  25229.7  157.739
 11.6416  26996.7  163.525
 11.8396  24636.4  156.405
 12.0376  24164.2  154.535
 12.2356  23712.6  153.538
 12.4336  23678.4  152.949
 12.6316  23647.5  153.099
 12.8296  23799  153.204
 13.0276  23972.3  153.98
 13.2256  24603.5  156.358
 13.4236  24458.4  155.669
 13.6216  24604.5  156.12
 13.8196  26685.9  162.059
 14.0176  23694.4  153.294
 14.2156  23369.5  151.263
 14.4136  22251  148.977
 14.6116  21772.3  146.57
 14.8096  21067.5  144.161
 15.0076  20202.6  145.046
 15.2056  19285.7  137.557
 15.4036  18382.3  135.121
 15.6016  17997.4  132.795
 15.7996  17579  131.515
 15.9976  17283.4  133.281
 16.1956  16950.2  129.884
 16.3936  16821.4  128.549
 16.5916  16180.8  126.726
 16.7896  16003.1  126.082
 16.9876  16156.4  128.147
 17.1856  16149.6  126.495
 17.3836  15707.5  124.658
 17.5816  15214.7  123.161
 17.7796  14785.3  121.348
 17.9776  14492.1  120.91
 18.1756  14449  119.485
 18.3736  14269.9  119.223
 18.5716  13961.9  117.686
 18.7696  14108.9  117.869
 18.9676  13941.1  116.957
 19.1656  13633.2  116.251
 19.3636  13626.9  116.412
 19.5616  13533.4  116.182
 19.7596  13725.8  116.407
 19.9576  13806.9  116.799
 20.1556  14609.8  120.688
 20.3536  14103.3  117.95
 20.5516  13416.5  115.481
 20.7496  13165.5  114.33
 20.9476  13044.6  113.562
 21.1456  12906.9  113.291
 21.3436  12708.5  112.366
 21.5416  12616.7  111.967
 21.7396  12602.6  111.752
 21.9376  12508.6  111.111
 22.1356  12512.9  111.252
 22.3336  12330.8  110.71
 22.5316  12222.9  110.334
 22.7296  12311.4  110.096
 22.9276  12198.6  110.259
 23.1256  12321.8  110.294
 23.3236  12716.6  112.613
 23.5216  12507.4  111.315
 23.7196  12438.7  110.965
 23.9176  12498.9  110.979
 24.1156  12131  109.786
 24.3136  11794.7  109.054
 24.5116  11908.6  109.102
 24.7096  11535.9  107.205
 24.9076  11458.2  106.866
 25.1056  11213.1  105.921
 25.3036  10926.8  104.344
 25.5016  10849.4  104.01
 25.6996  10926.4  103.959
 25.8976  10968  104.591
 26.0956  10682  103.236
 26.2936  10781  103.373
 26.4916  10954  104.065
 26.6896  10689.1  103.099
 26.8876  10642.1  102.712
 27.0856  10405.2  101.597
 27.2836  10268.7  100.856
 27.4816  9986.34  99.4026
 27.6796  10101.5  100.331
 27.8776  10227.9  100.815
 28.0756  9944.02  99.6947
 28.2736  9956.6  99.3463
 28.4716  9791.21  98.558
 28.6696  9817.14  98.5429
 28.8676  9637.88  97.9849
 29.0656  9542.95  97.4774
 29.2636  9710.87  98.0399
 29.4616  9190.27  95.6448
 29.6596  9163.32  95.0821
 29.8576  9019.13  94.9973
 30.0556  9088.3  95.2332
 30.2536  9315.89  96.2218
 30.4516  9346.3  96.0109
 30.6496  9247.7  95.2429
 30.8476  9442.72  96.6837
 31.0456  9453.78  96.7003
 31.2436  9380.06  95.577
 31.4416  9339.14  95.5687
 31.6396  9216.72  94.9731
 31.8376  9336.1  95.1165
 32.0356  9240.5  95.1957
 32.2336  9152.31  94.1463
 32.4316  8848.22  92.9814
 32.6296  8880.8  92.9162
 32.8276  8894.96  92.8493
 33.0256  8684.25  91.8063
 33.2236  8851.29  92.8229
 33.4216  8768.33  92.0854
 33.6196  8744.09  92.2451
 33.8176  8778.25  92.5915
 34.0156  8689.4  91.7474
 34.2136  8735.72  92.0057
 34.4116  8450.58  90.6711
 34.6096  8551  91.0836
 34.8076  8402.37  90.7021
 35.0056  8492.54  90.837
 35.2036  8605.88  91.6868
 35.4016  8470.77  90.8817
 35.5996  8371.57  90.3743
 35.7976  8391.54  90.7489
 35.9956  8457.44  90.7629
 36.1936  8332.42  89.9327
 36.3916  8244.73  89.6644
 36.5896  8290.43  91.3647
 36.7876  8048.6  88.9629
 36.9856  7814.81  87.6883
 37.1836  7984.23  87.7526
 37.3816  7967.18  88.0181
 37.5796  7979.15  89.7858
 37.7776  7995.97  88.2578
 37.9756  8092.87  88.6755
 38.1736  8072.86  88.7592
 38.3716  8000.85  88.6375
 38.5696  7917.01  88.5354
 38.7676  7877.38  87.8361
 38.9656  7846.37  87.2831
 39.1636  7920.45  87.952
 39.3616  7890.05  87.7442
 39.5596  7719.64  87.6144
 39.7576  7826.67  87.6089
 39.9556  7823.55  87.238
 40.1536  7938.11  88.0682
 40.3516  7846.33  87.5728
 40.5496  7871.23  87.7437
 40.7476  8027.11  88.8311
 40.9456  8011.86  88.5001
 41.1436  7983.73  88.0678
 41.3416  7846.43  87.641
 41.5396  7772.69  87.0385
 41.7376  7939.52  88.2305
 41.9356  7817.21  87.4076
 42.1336  8049.11  88.8259
 42.3316  7722.28  87.2163
 42.5296  7755.54  86.9277
 42.7276  7755.85  87.1686
 42.9256  7774.63  87.1455
 43.1236  7696.86  86.8138
 43.3216  7796.12  87.2212
 43.5196  7616.28  86.1669
 43.7176  7615.48  86.5542
 43.9156  7447.66  85.5239
 44.1136  7407.02  84.8476
 44.3116  7570.29  85.7899
 44.5096  7461.78  85.4791
 44.7076  7586.56  86.1174
 44.9056  7759.21  86.9553
 45.1036  7546.93  85.3799
 45.3016  7661.31  86.5334
 45.4996  7666.13  86.4957
 45.6976  7439.05  85.3865
 45.8956  7538.47  85.7623
 46.0936  7516.99  85.6445
 46.2916  7493.93  85.4888
 46.4896  7529.65  85.7174
 46.6876  7366.6  85.5034
 46.8856  7343.43  84.635
 47.0836  7397.25  85.2014
 47.2816  7321.53  84.6429
 47.4796  7416.41  85.2905
 47.6776  7278.48  85.446
 47.8756  7325.38  84.8872
 48.0736  7341.02  85.4371
 48.2716  7198.08  84.422
 48.4696  7379.63  85.0593
 48.6676  7350.21  85.497
 48.8656  7306.01  84.946
 49.0636  7315.56  84.9554
 49.2616  7239.99  84.5604
 49.4596  7338.37  84.6818
 49.6576  7227.21  84.2592
 49.8556  7182.14  84.0231
 50.0536  7213.05  84.6576
 50.2516  7249.74  84.983
 50.4496  7277.33  84.8225
 50.6476  7232.5  84.235
 50.8456  7171.1  83.9615
 51.0436  6949.88  83.1127
 51.2416  6952.85  82.8006
 51.4396  6843.09  82.5484
 51.6376  6959.32  83.0621
 51.8356  6877.87  82.1986
 52.0336  6868.99  82.654
 52.2316  6917.41  83.3071
 52.4296  6851.34  82.6086
 52.6276  6805.34  82.4405
 52.8256  7012.01  83.2325
 53.0236  7021.08  83.9384
 53.2216  6912.6  83.3184
 53.4196  6854.22  82.8591
 53.6176  6888.99  83.5907
 53.8156  6823.45  82.8615
 54.0136  6659.44  82.0344
 54.2116  6790.67  82.4661
 54.4096  6558.24  81.1085
 54.6076  6562.3  81.4895
 54.8056  6520.46  80.9817
 55.0036  6516.86  81.3939
 55.2016  6637.29  81.6396
 55.3996  6446.67  80.4545
 55.5976  6378.42  80.2105
 55.7956  6439.83  80.4104
 55.9936  6447.01  80.5685
 56.1916  6349.4  79.9987
 56.3896  6266.12  79.4637
 56.5876  6272.48  80.0578
 56.7856  6217.63  79.2124
 56.9836  6370.78  79.9451
 57.1816  6301.17  79.8722
 57.3796  6186.22  78.9574
 57.5776  6267.33  79.3503
 57.7756  6088.65  78.9011
 57.9736  6151.86  78.9621
 58.1716  6010.66  78.3206
 58.3696  5940.97  77.6269
 58.5676  5984.29  77.3645
 58.7656  5960.43  77.9019
 58.9636  5867.32  77.3141
 59.1616  5919.86  77.795
 59.3596  5929.61  77.1266
 59.5576  5896.21  76.965
 59.7556  5870.82  77.2115
 59.9536  5886.01  77.2115
 60.1516  5942.93  78.4259
 60.1996  0.0000000E+00  0.0000000E+00

File: 17_Db_f00108.xye
# /beamlines/bl04/projects/cycle2025-II/20250340211-lsimonelli/DATA/IS17_D/17_Db_f00108.xye : mythproc.py merge -s 0.006 -l 0.5 -f /beamlines/bl04/inhouse/ff/FlatField/ff_20Nov2024rod8mm60s_17keV.raw -b True -c true -o xye /beamlines/bl04/projects/cycle2025-II/20250340211-lsimonelli/DATA/IS17_D/17_Db_00108.dat
# IsMon = [6753219, 6757782, 6754451]  IsPos = [-1.4999, -2.4884, -3.4988]
# Wave = 0.4962  CalPath /beamlines/bl04/projects/cycle2025-II/20250340211-lsimonelli/DATA/Align/Si_Pos1_25keV_f00001.cal
# Date = 2025-09-24_23:49:17 Dt = 4.8000  Bin = 0.0060  <imon> = 6755151 +/- 1927 (Min/Max) 6753219 / 6757782
# icurr 250.3984  mocoIn 1.7079E-05  mocoOut 0.8017  i15 7.0833e+06  imon 6.75515e+06  i7 3.0000  iEMpd_timer 4.8000  iEMpd_1 3.4825E-08  iEMpd_2 7.7236E-08  iEMpd_3 1.7071E-08  iEMpd_4 4.8249E-08  iEMhp_timer 4.8000  iEMhp_1 4.8921E-06  iEMhp_2 -2.6337E-08  iEMhp_3 -2.5185E-08  iEMhp_4 -2.1672E-08
#      9776
 1.7416  71100.5  266.761
 1.9396  49823.8  223.597
 2.1376  36899.7  192.42
 2.3356  33861.7  183.941
 2.5336  31173.5  177.11
 2.7316  29199.6  171.505
 2.9296  27687.5  167.169
 3.1276  27011  164.645
 3.3256  26063.2  161.359
 3.5236  27326.7  165.02
 3.7216  24932  158.917
 3.9196  24338.2  156.194
 4.1176  24306.9  155.895
 4.3156  25012.5  158.311
 4.5136  27315.3  164.392
 4.7116  28304.2  168.501
 4.9096  27750.5  166.266
 5.1076  27301.1  165.506
 5.3056  27361.6  165.411
 5.5036  27105.1  164.534
 5.7016  27506  165.713
 5.8996  28042.8  166.545
 6.0976  28928.4  170.582
 6.2956  28987.2  170.093
 6.4936  29713.9  171.406
 6.6916  30151.6  173.665
 6.8896  30972.1  175.857
 7.0876  32015  179.547
 7.2856  31818.9  178.037
 7.4836  32102.5  178.17
 7.6816  33086.2  181.393
 7.8796  33834.2  183.437
 8.0776  35050.8  187.687
 8.2756  36760.9  190.84
 8.4736  37166.9  191.692
 8.6716  36687.4  191.068
 8.8696  37665.5  194.142
 9.0676  36566.9  190.611
 9.2656  35710.6  189.066
 9.4636  34602.2  184.566
 9.6616  33821.7  183.194
 9.8596  33262.1  181.101
 10.0576  31193.4  176.039
 10.2556  30331.5  174.048
 10.4536  29033.4  169.89
 10.6516  28186  167.596
 10.8496  27116.2  163.819
 11.0476  26191  161.001
 11.2456  25512  159.426
 11.4436  25489.3  158.544
 11.6416  27320  164.491
 11.8396  24975.6  157.484
 12.0376  24236.5  154.785
 12.2356  23835.9  153.897
 12.4336  24005  153.998
 12.6316  23768.9  153.498
 12.8296  23771  153.114
 13.0276  24171  154.611
 13.2256  24655.4  156.522
 13.4236  24531.6  155.898
 13.6216  24781.3  156.686
 13.8196  26801.8  162.373
 14.0176  23874.2  153.87
 14.2156  23420.6  151.435
 14.4136  22384.7  149.43
 14.6116  22100.3  147.674
 14.8096  21330.8  145.06
 15.0076  20407.7  145.785
 15.2056  19421.3  138.027
 15.4036  18394  135.151
 15.6016  18214.8  133.579
 15.7996  17519  131.278
 15.9976  17426.6  133.832
 16.1956  16981  130.009
 16.3936  16655.3  127.946
 16.5916  16389.6  127.566
 16.7896  16161.1  126.724
 16.9876  16170.6  128.198
 17.1856  16207.5  126.712
 17.3836  15672.5  124.516
 17.5816  15255.4  123.325
 17.7796  14873.3  121.704
 17.9776  14509.3  120.983
 18.1756  14563.9  119.963
 18.3736  14137.4  118.66
 18.5716  14071.1  118.138
 18.7696  14096.7  117.815
 18.9676  14163.9  117.907
 19.1656  13723  116.637
 19.3636  13723  116.819
 19.5616  13627.8  116.586
 19.7596  13931.5  117.283
 19.9576  13857.4  117.009
 20.1556  14581  120.558
 20.3536  14195.8  118.342
 20.5516  13420.8  115.498
 20.7496  13134.5  114.197
 20.9476  13031.2  113.509
 21.1456  13027.8  113.815
 21.3436  12910.7  113.255
 21.5416  12891.8  113.189
 21.7396  12721.6  112.281
 21.9376  12611.5  111.57
 22.1356  12538.7  111.358
 22.3336  12343.4  110.767
 22.5316  12365.4  110.961
 22.7296  12390.5  110.447
 22.9276  12095.4  109.779
 23.1256  12459.8  110.902
 23.3236  12798  112.989
 23.5216  12711.8  112.239
 23.7196  12504.4  111.275
 23.9176  12401.9  110.562
 24.1156  12304.4  110.592
 24.3136  11977.4  109.908
 24.5116  12054.7  109.752
 24.7096  11637.4  107.667
 24.9076  11482  106.996
 25.1056  11318.2  106.685
 25.3036  11019  104.78
 25.5016  10994.1  104.702
 25.6996  10959  104.117
 25.8976  10932.2  104.427
 26.0956  10823.3  103.912
 26.2936  10834.9  103.624
 26.4916  11073.6  104.62
 26.6896  10726.9  103.276
 26.8876  10642.6  102.721
 27.0856  10527.3  102.23
 27.2836  10262  100.811
 27.4816  10278.2  100.842
 27.6796  10118.7  100.411
 27.8776  10422.9  101.768
 28.0756  10004  99.9892
 28.2736  9833.12  98.7211
 28.4716  9780.57  98.5083
 28.6696  9844.17  98.6704
 28.8676  9782.63  98.717
 29.0656  9640.17  97.9726
 29.2636  9775.94  98.4506
 29.4616  9366.57  96.5471
 29.6596  9323.45  95.894
 29.8576  9253.9  96.2083
 30.0556  9261.58  96.1374
 30.2536  9395.02  96.6167
 30.4516  9514.36  96.8797
 30.6496  9502.91  96.562
 30.8476  9367.47  96.2973
 31.0456  9536.48  97.1346
 31.2436  9587.03  96.6419
 31.4416  9254.36  95.1232
 31.6396  9352.47  95.68
 31.8376  9375.58  95.331
 32.0356  9272.5  95.3592
 32.2336  9261.26  94.7173
 32.4316  8994.82  93.741
 32.6296  8953.53  93.3564
 32.8276  9057.55  93.695
 33.0256  8870.59  92.7765
 33.2236  8945.4  93.3234
 33.4216  8809.16  92.293
 33.6196  8870.89  92.9101
 33.8176  8879.39  93.1185
 34.0156  8838.33  92.5333
 34.2136  8683.37  91.7484
 34.4116  8535.2  91.1221
 34.6096  8627.09  91.4886
 34.8076  8431.13  90.8586
 35.0056  8489.33  90.8351
 35.2036  8738.8  92.399
 35.4016  8510.43  91.0913
 35.5996  8539.8  91.2801
 35.7976  8428.44  90.9582
 35.9956  8439.94  90.6717
 36.1936  8415.97  90.3809
 36.3916  8302.84  89.9812
 36.5896  8203.54  90.4192
 36.7876  8140.19  89.4579
 36.9856  7908.69  88.2058
 37.1836  8090.69  88.3216
 37.3816  8017.25  88.2867
 37.5796  8017.54  90.0068
 37.7776  8259.35  89.7154
 37.9756  8215.19  89.3521
 38.1736  8111.49  88.9746
 38.3716  8165.62  89.5499
 38.5696  8007.71  89.0464
 38.7676  7901.25  87.966
 38.9656  7981.6  88.0367
 39.1636  7897.33  87.8494
 39.3616  7977.14  88.2175
 39.5596  7757.6  87.8321
 39.7576  7739.31  87.1208
 39.9556  7889.11  87.601
 40.1536  7937.58  88.0619
 40.3516  7956.73  88.18
 40.5496  7896.53  88.1019
 40.7476  8023.69  88.8094
 40.9456  7989.96  88.3746
 41.1436  8033.52  88.3439
 41.3416  7800.96  87.387
 41.5396  7899.85  87.7459
 41.7376  7938.81  88.2275
 41.9356  7780.08  87.1995
 42.1336  7932.1  88.1856
 42.3316  7791.53  87.6051
 42.5296  7784.96  87.0943
 42.7276  7840.47  87.6411
 42.9256  7872.62  87.6907
 43.1236  7771.52  87.2292
 43.3216  7859.59  87.4777
 43.5196  7817.91  87.2994
 43.7176  7705.96  87.0626
 43.9156  7549.55  86.0951
 44.1136  7354.18  84.5327
 44.3116  7521.92  85.51
 44.5096  7530.98  85.8645
 44.7076  7602.01  86.1993
 44.9056  7680.26  86.5178
 45.1036  7540.2  85.3508
 45.3016  7598.6  86.1909
 45.4996  7499.53  85.5641
 45.6976  7387.91  85.1007
 45.8956  7554.31  85.8482
 46.0936  7717.61  86.7852
 46.2916  7452.49  85.2556
 46.4896  7707.87  86.7339
 46.6876  7447.63  85.9713
 46.8856  7410.13  85.0203
 47.0836  7378.41  85.0909
 47.2816  7302.81  84.5302
 47.4796  7523.25  85.908
 47.6776  7284.04  85.4862
 47.8756  7459.1  85.6672
 48.0736  7464.96  86.1615
 48.2716  7234.07  84.6263
 48.4696  7463.55  85.5403
 48.6676  7412.81  85.8538
 48.8656  7458.37  85.8401
 49.0636  7534.91  86.2199
 49.2616  7257.15  84.6534
 49.4596  7343.39  84.7131
 49.6576  7330.32  84.8617
 49.8556  7253.08  84.4414
 50.0536  7228.88  84.7512
 50.2516  7248.86  85.0033
 50.4496  7192.68  84.3212
 50.6476  7330.31  84.795
 50.8456  7269.77  84.5344
 51.0436  7071.06  83.8241
 51.2416  7136.44  83.8822
 51.4396  6968.99  83.2937
 51.6376  6987.14  83.2177
 51.8356  7020.99  83.0345
 52.0336  7011.67  83.5115
 52.2316  7009.41  83.87
 52.4296  7014.01  83.5905
 52.6276  6970.29  83.4353
 52.8256  7027.22  83.33
 53.0236  7041.59  84.0544
 53.2216  7033.51  84.0448
 53.4196  7047.73  84.0206
 53.6176  6870.22  83.4759
 53.8156  6940.94  83.5701
 54.0136  6651.15  81.9847
 54.2116  6793.78  82.4847
 54.4096  6614.36  81.4625
 54.6076  6601.01  81.7201
 54.8056  6575.3  81.3372
 55.0036  6577.55  81.7681
 55.2016  6612.2  81.4992
 55.3996  6455.57  80.5012
 55.5976  6477.97  80.8405
 55.7956  6403.44  80.1928
 55.9936  6628.4  81.7242
 56.1916  6461.03  80.7082
 56.3896  6348.38  79.9797
 56.5876  6244.06  79.881
 56.7856  6229.06  79.2757
 56.9836  6432.02  80.3243
 57.1816  6412.68  80.5478
 57.3796  6290.76  79.6268
 57.5776  6307.87  79.6336
 57.7756  6087.51  78.8803
 57.9736  6103.98  78.6682
 58.1716  6188.54  79.4715
 58.3696  5917.01  77.4512
 58.5676  5968.54  77.2742
 58.7656  5998.99  78.1422
 58.9636  5992.4  78.1272
 59.1616  5826.63  77.1706
 59.3596  5988.85  77.5129
 59.5576  6067.75  78.0786
 59.7556  5847.49  77.0599
 59.9536  6050.24  78.2833
 60.1516  5941.31  78.4173
 60.1996  0.0000000E+00  0.0000000E+00