Folder: echemistpy/docs/examples/opeando_xrd/IS17_D/Data/IS17_D (part 50)

File: 17_Da_f00129.xye
# /beamlines/bl04/projects/cycle2025-II/20250340211-lsimonelli/DATA/IS17_D/17_Da_f00129.xye : mythproc.py merge -s 0.006 -l 0.5 -f /beamlines/bl04/inhouse/ff/FlatField/ff_20Nov2024rod8mm60s_17keV.raw -b True -c true -o xye /beamlines/bl04/projects/cycle2025-II/20250340211-lsimonelli/DATA/IS17_D/17_Da_00129.dat
# IsMon = [6754229, 6752610, 6756847]  IsPos = [-1.5000, -2.4884, -3.4988]
# Wave = 0.4962  CalPath /beamlines/bl04/projects/cycle2025-II/20250340211-lsimonelli/DATA/Align/Si_Pos1_25keV_f00001.cal
# Date = 2025-09-25_05:31:26 Dt = 4.8000  Bin = 0.0060  <imon> = 6754562 +/- 1746 (Min/Max) 6752610 / 6756847
# icurr 249.8517  mocoIn 1.7043E-05  mocoOut 0.8002  i15 7.07318e+06  imon 6.75456e+06  i7 3.0000  iEMpd_timer 4.8000  iEMpd_1 3.3756E-08  iEMpd_2 7.8799E-08  iEMpd_3 1.7348E-08  iEMpd_4 4.8925E-08  iEMhp_timer 4.8000  iEMhp_1 4.8809E-06  iEMhp_2 -2.4953E-08  iEMhp_3 -2.5570E-08  iEMhp_4 -2.1246E-08
#      9776
 1.7416  70234.2  265.1
 1.9396  45657.8  214.019
 2.1376  32720.1  181.173
 2.3356  29008.2  170.229
 2.5336  27352.6  165.882
 2.7316  25550.8  160.445
 2.9296  24297.9  156.628
 3.1276  23785.9  154.512
 3.3256  23546.7  153.414
 3.5236  25309.3  158.854
 3.7216  23130.1  153.08
 3.9196  22944.4  151.693
 4.1176  22794.5  150.964
 4.3156  23993.3  155.044
 4.5136  26285.9  161.28
 4.7116  27483.3  166.047
 4.9096  26752.1  163.261
 5.1076  26367.4  162.656
 5.3056  26751.9  163.565
 5.5036  26593.7  162.984
 5.7016  27055.2  164.355
 5.8996  27741.1  165.632
 6.0976  28415.5  169.079
 6.2956  28853.3  169.712
 6.4936  29580.6  171.025
 6.6916  30198.2  173.809
 6.8896  30512.4  174.574
 7.0876  31773.3  178.79
 7.2856  31644.5  177.568
 7.4836  32069.3  178.086
 7.6816  33143.3  181.581
 7.8796  34664.5  185.695
 8.0776  36103  190.492
 8.2756  38019.3  194.068
 8.4736  38554.1  195.245
 8.6716  37871.3  194.157
 8.8696  37415.8  193.427
 9.0676  37191  192.216
 9.2656  36202.2  190.333
 9.4636  35633.6  187.228
 9.6616  35030.1  186.418
 9.8596  33753.2  182.479
 10.0576  31955.5  178.23
 10.2556  30784.4  175.371
 10.4536  30099.6  173.002
 10.6516  29604.8  171.781
 10.8496  28420.2  167.69
 11.0476  27666.1  165.485
 11.2456  27333.1  165.026
 11.4436  27710.4  165.309
 11.6416  26516.4  162.073
 11.8396  24970.7  157.482
 12.0376  25146.8  157.666
 12.2356  24567.8  156.255
 12.4336  24480.7  155.513
 12.6316  24147.9  154.722
 12.8296  24537.6  155.603
 13.0276  25078.9  157.492
 13.2256  24883.4  157.242
 13.4236  24701  156.434
 13.6216  24705.4  156.466
 13.8196  24920.3  156.903
 14.0176  24460.5  155.746
 14.2156  23777.7  152.593
 14.4136  22779.2  150.738
 14.6116  22433.8  148.793
 14.8096  21720.2  146.385
 15.0076  20538.9  146.186
 15.2056  20089.4  140.391
 15.4036  19052.7  137.549
 15.6016  18898.8  136.068
 15.7996  18265.5  134.039
 15.9976  17706.9  134.949
 16.1956  17142.2  130.631
 16.3936  16913.3  128.925
 16.5916  16600.8  128.363
 16.7896  16723.6  128.9
 16.9876  16408.3  129.159
 17.1856  16168  126.574
 17.3836  15726.3  124.735
 17.5816  15439.5  124.08
 17.7796  15227  123.159
 17.9776  15119.2  123.506
 18.1756  15307  122.965
 18.3736  15038.1  122.399
 18.5716  14807.3  121.199
 18.7696  14788.3  120.689
 18.9676  14543.7  119.49
 19.1656  14369.1  119.331
 19.3636  14248.3  119.041
 19.5616  14066.9  118.447
 19.7596  14424.2  119.338
 19.9576  15140.4  122.325
 20.1556  14263.7  119.25
 20.3536  13863.2  116.935
 20.5516  13563.5  116.117
 20.7496  13293.3  114.804
 20.9476  13163.3  114.079
 21.1456  13417.9  115.517
 21.3436  13206.9  114.553
 21.5416  13098.8  114.083
 21.7396  12934.6  113.212
 21.9376  12890.1  112.783
 22.1356  12977.2  113.443
 22.3336  12924.4  113.357
 22.5316  13024.5  113.876
 22.7296  12856.9  112.502
 22.9276  12778.2  112.841
 23.1256  13006.3  113.302
 23.3236  12708.6  112.558
 23.5216  12738.6  112.34
 23.7196  12613.8  111.956
 23.9176  12601.9  111.445
 24.1156  12464.2  111.305
 24.3136  11958.5  109.834
 24.5116  12105  110.025
 24.7096  11565.8  107.365
 24.9076  11533.4  107.234
 25.1056  11299.9  106.617
 25.3036  11179.2  105.548
 25.5016  11058.3  105.005
 25.6996  11333.3  105.884
 25.8976  11097.6  105.212
 26.0956  11090.2  105.195
 26.2936  11145.1  105.1
 26.4916  11225.6  105.352
 26.6896  10809.5  103.686
 26.8876  10822.8  103.595
 27.0856  10750.9  103.3
 27.2836  10527.4  102.12
 27.4816  10534  102.079
 27.6796  10304.2  101.343
 27.8776  10397.9  101.658
 28.0756  10370.1  101.811
 28.2736  10323.3  101.158
 28.4716  10113.8  100.177
 28.6696  10035.7  99.6327
 28.8676  9850.44  99.0621
 29.0656  9866.36  99.1175
 29.2636  9898.15  99.0736
 29.4616  9903.19  99.2795
 29.6596  9933.04  98.9889
 29.8576  9615.58  98.0808
 30.0556  9693.61  98.3468
 30.2536  9808.88  98.7294
 30.4516  9632.22  97.4821
 30.6496  9629.79  97.1943
 30.8476  9513.12  97.0474
 31.0456  9503.81  96.9631
 31.2436  9488.25  96.1466
 31.4416  9328.68  95.524
 31.6396  9247.75  95.158
 31.8376  9377.43  95.3653
 32.0356  9337.32  95.7331
 32.2336  9121.5  94.0038
 32.4316  9104.47  94.3223
 32.6296  9137.3  94.3297
 32.8276  9046.74  93.633
 33.0256  9083.13  93.8973
 33.2236  9089.36  94.0733
 33.4216  9029.45  93.4478
 33.6196  8990.12  93.5485
 33.8176  8957.12  93.5328
 34.0156  8846.58  92.5709
 34.2136  8838.68  92.5718
 34.4116  8702.14  92.0026
 34.6096  8793.44  92.3593
 34.8076  8623.77  91.8757
 35.0056  8735.67  92.1589
 35.2036  8563.87  91.4543
 35.4016  8608.92  91.6191
 35.5996  8537.64  91.2767
 35.7976  8509.28  91.404
 35.9956  8508.21  91.0306
 36.1936  8481.25  90.7663
 36.3916  8427.2  90.6502
 36.5896  8316.73  91.0212
 36.7876  8400.93  90.8892
 36.9856  8204.18  89.8448
 37.1836  8403.31  90.0212
 37.3816  8396.85  90.3507
 37.5796  8261  91.361
 37.7776  8038.62  88.491
 37.9756  8103.5  88.7286
 38.1736  8299.07  89.987
 38.3716  8175.58  89.6001
 38.5696  8116.48  89.6605
 38.7676  7800.64  87.4156
 38.9656  8011.2  88.2214
 39.1636  7967.52  88.2437
 39.3616  7979.59  88.2412
 39.5596  7895.79  88.6081
 39.7576  7941.16  88.2443
 39.9556  8060.08  88.5415
 40.1536  8155.29  89.2613
 40.3516  8047.44  88.6892
 40.5496  8172.42  89.6357
 40.7476  8063.25  89.0418
 40.9456  8091.04  88.9425
 41.1436  8171.18  89.0998
 41.3416  7977.09  88.367
 41.5396  8047.37  88.5618
 41.7376  7973.49  88.4217
 41.9356  7891.99  87.8315
 42.1336  8006.45  88.6095
 42.3316  7883.92  88.1329
 42.5296  7862.23  87.5271
 42.7276  7879.24  87.8627
 42.9256  7926.5  87.99
 43.1236  7843.1  87.6385
 43.3216  7902.07  87.71
 43.5196  7758.8  86.9831
 43.7176  7844.64  87.8578
 43.9156  7745.19  87.2097
 44.1136  7723.86  86.6335
 44.3116  7684.23  86.426
 44.5096  7702.57  86.8451
 44.7076  7576.49  86.0606
 44.9056  7585.99  85.9759
 45.1036  7445.95  84.8073
 45.3016  7482.2  85.5118
 45.4996  7343.24  84.6541
 45.6976  7323.37  84.7126
 45.8956  7420.64  85.1054
 46.0936  7473.19  85.1602
 46.2916  7450.81  85.2616
 46.4896  7461.07  85.3465
 46.6876  7336.27  85.3473
 46.8856  7258.94  84.143
 47.0836  7272.19  84.475
 47.2816  7221.87  84.0673
 47.4796  7244  84.2913
 47.6776  7095.77  84.37
 47.8756  7230.45  84.3391
 48.0736  7105.54  84.0579
 48.2716  6949.65  82.9539
 48.4696  7015.72  82.9354
 48.6676  7088.26  83.9471
 48.8656  7105.73  83.7853
 49.0636  7067.06  83.5028
 49.2616  6857.81  82.2977
 49.4596  7022.06  82.8331
 49.6576  6899  82.339
 49.8556  6845.86  82.0364
 50.0536  6971.06  83.2241
 50.2516  6872.03  82.7639
 50.4496  6926.73  82.7559
 50.6476  6804.23  81.7049
 50.8456  6775.35  81.6027
 51.0436  6745.65  81.878
 51.2416  6680.47  81.1522
 51.4396  6546.06  80.7315
 51.6376  6725.74  81.6565
 51.8356  6683.91  81.0302
 52.0336  6446.93  80.0759
 52.2316  6457.7  80.4899
 52.4296  6543.74  80.7076
 52.6276  6539.46  80.8016
 52.8256  6789.1  81.8777
 53.0236  6390.05  80.0862
 53.2216  6377.42  80.0228
 53.4196  6218.17  78.9627
 53.6176  6360.32  80.3347
 53.8156  6367.46  80.054
 54.0136  6311.36  79.8611
 54.2116  6356.98  79.8186
 54.4096  6426.4  80.3094
 54.6076  6372.94  80.3188
 54.8056  6232.84  79.2167
 55.0036  6144.45  78.9202
 55.2016  6227.5  79.054
 55.3996  6241.43  79.185
 55.5976  6257.16  79.4609
 55.7956  6320.27  79.678
 55.9936  6217.9  79.1674
 56.1916  6301.36  79.7146
 56.3896  6219.56  79.193
 56.5876  6160.4  79.3617
 56.7856  6206.48  79.1329
 56.9836  6087.13  78.1648
 57.1816  6248.64  79.574
 57.3796  6267.72  79.4906
 57.5776  6177.6  78.8397
 57.7756  6151.33  79.3205
 57.9736  6143.98  78.9443
 58.1716  6243.57  79.822
 58.3696  6056.45  78.3688
 58.5676  6208.19  78.8225
 58.7656  6125.1  78.9597
 58.9636  6257.96  79.8507
 59.1616  6183.24  79.4953
 59.3596  6301.54  79.4933
 59.5576  6293.94  79.503
 59.7556  6209.17  79.3898
 59.9536  6268.66  79.6662
 60.1516  6247.79  80.3967
 60.1996  0.0000000E+00  0.0000000E+00

File: 17_Da_f00130.xye
# /beamlines/bl04/projects/cycle2025-II/20250340211-lsimonelli/DATA/IS17_D/17_Da_f00130.xye : mythproc.py merge -s 0.006 -l 0.5 -f /beamlines/bl04/inhouse/ff/FlatField/ff_20Nov2024rod8mm60s_17keV.raw -b True -c true -o xye /beamlines/bl04/projects/cycle2025-II/20250340211-lsimonelli/DATA/IS17_D/17_Da_00130.dat
# IsMon = [6765453, 6764982, 6764808]  IsPos = [-1.4999, -2.4884, -3.4989]
# Wave = 0.4962  CalPath /beamlines/bl04/projects/cycle2025-II/20250340211-lsimonelli/DATA/Align/Si_Pos1_25keV_f00001.cal
# Date = 2025-09-25_05:47:57 Dt = 4.8000  Bin = 0.0060  <imon> = 6765081 +/- 272 (Min/Max) 6764808 / 6765453
# icurr 250.7265  mocoIn 1.7099E-05  mocoOut 0.8020  i15 7.08483e+06  imon 6.76508e+06  i7 6.0000  iEMpd_timer 4.8000  iEMpd_1 3.3741E-08  iEMpd_2 7.9415E-08  iEMpd_3 1.7438E-08  iEMpd_4 4.8108E-08  iEMhp_timer 4.8000  iEMhp_1 4.8969E-06  iEMhp_2 -2.6378E-08  iEMhp_3 -2.4588E-08  iEMhp_4 -2.2269E-08
#      9776
 1.7416  70281.8  265.176
 1.9396  46024.2  214.866
 2.1376  32767.1  181.293
 2.3356  29186.4  170.742
 2.5336  26994.9  164.785
 2.7316  25345.3  159.786
 2.9296  24086.1  155.929
 3.1276  23736.9  154.332
 3.3256  23678.4  153.826
 3.5236  25628.9  159.839
 3.7216  23341.2  153.777
 3.9196  22813  151.264
 4.1176  22701.1  150.656
 4.3156  23954.8  154.923
 4.5136  26297.7  161.31
 4.7116  27487  166.054
 4.9096  26898.1  163.704
 5.1076  26365.3  162.648
 5.3056  26863.3  163.907
 5.5036  26965.5  164.115
 5.7016  27148.2  164.637
 5.8996  27810.8  165.85
 6.0976  28415.7  169.076
 6.2956  28975  170.071
 6.4936  29641.3  171.199
 6.6916  29965.3  173.139
 6.8896  30978.1  175.897
 7.0876  31807.7  178.97
 7.2856  31787.2  177.965
 7.4836  32160.3  178.34
 7.6816  32983.7  181.142
 7.8796  34638.4  185.629
 8.0776  36199  190.756
 8.2756  38023.3  194.094
 8.4736  38700.5  195.618
 8.6716  37920.6  194.279
 8.8696  37714.4  194.221
 9.0676  37351.3  192.642
 9.2656  36090.6  190.054
 9.4636  36124.5  188.538
 9.6616  35176  186.827
 9.8596  33896.6  182.848
 10.0576  32148.8  178.75
 10.2556  30750.3  175.251
 10.4536  30254.2  173.434
 10.6516  29377  171.098
 10.8496  28526.4  168.009
 11.0476  27928.9  166.265
 11.2456  27339.6  165.044
 11.4436  27904.1  165.885
 11.6416  26670.5  162.541
 11.8396  25209.8  158.23
 12.0376  25111  157.561
 12.2356  24646.6  156.499
 12.4336  24558.9  155.763
 12.6316  24152.2  154.732
 12.8296  24530.1  155.579
 13.0276  25134.4  157.669
 13.2256  24960.7  157.488
 13.4236  24773  156.658
 13.6216  24659.3  156.316
 13.8196  24776.7  156.456
 14.0176  24192.6  154.793
 14.2156  23968  153.199
 14.4136  22846.9  150.961
 14.6116  22484.2  148.961
 14.8096  21824.2  146.743
 15.0076  20473.9  145.957
 15.2056  20333.7  141.245
 15.4036  19194.9  138.055
 15.6016  19051.7  136.625
 15.7996  18392.5  134.521
 15.9976  17656.5  135.379
 16.1956  17159  130.705
 16.3936  16886.7  128.829
 16.5916  16696.6  128.743
 16.7896  16773.1  129.098
 16.9876  16536.3  129.656
 17.1856  16250.7  126.889
 17.3836  15754.3  124.829
 17.5816  15342.5  123.683
 17.7796  15195.8  123.022
 17.9776  15076.3  123.332
 18.1756  15392.7  123.307
 18.3736  15023.1  122.336
 18.5716  14771.9  121.058
 18.7696  14979.7  121.462
 18.9676  14455.6  119.128
 19.1656  14324.2  119.149
 19.3636  14446.5  119.862
 19.5616  14207.6  119.036
 19.7596  14477.7  119.55
 19.9576  15108.3  122.188
 20.1556  14286.6  119.35
 20.3536  13841  116.846
 20.5516  13661.4  116.537
 20.7496  13369.7  115.225
 20.9476  13289.1  114.626
 21.1456  13422.5  115.536
 21.3436  13125.8  114.2
 21.5416  13169.9  114.396
 21.7396  12963.5  113.338
 21.9376  12919.6  112.914
 22.1356  12977.8  113.282
 22.3336  13005.5  113.713
 22.5316  12943.2  113.528
 22.7296  12903.2  112.704
 22.9276  12683  112.422
 23.1256  13065.7  113.575
 23.3236  12863.8  113.248
 23.5216  12703.9  112.197
 23.7196  12704.9  112.148
 23.9176  12562  111.268
 24.1156  12417.4  111.104
 24.3136  12098.5  110.465
 24.5116  12126.8  110.116
 24.7096  11765.4  108.279
 24.9076  11471.5  106.935
 25.1056  11327.6  106.737
 25.3036  11275.8  106
 25.5016  11282.3  106.064
 25.6996  11189.3  105.206
 25.8976  11188.2  105.64
 26.0956  11287.1  106.128
 26.2936  11223.9  105.469
 26.4916  11166.8  105.078
 26.6896  10789  103.586
 26.8876  10699.5  103.006
 27.0856  10834.5  103.711
 27.2836  10603.9  102.493
 27.4816  10458.8  101.725
 27.6796  10454.9  102.08
 27.8776  10333.2  101.341
 28.0756  10361.4  101.769
 28.2736  10306.2  101.077
 28.4716  10108.8  100.148
 28.6696  10094.7  99.9298
 28.8676  10026.1  99.9389
 29.0656  9922.81  99.4032
 29.2636  9851.28  98.8294
 29.4616  9792.15  98.7245
 29.6596  9857.46  98.6104
 29.8576  9689.23  98.46
 30.0556  9834.94  99.0704
 30.2536  9852.8  98.9522
 30.4516  9513.61  96.8859
 30.6496  9651.88  97.3101
 30.8476  9493.7  96.9548
 31.0456  9508.45  96.9879
 31.2436  9541.56  96.4181
 31.4416  9276.39  95.2448
 31.6396  9340.99  95.6272
 31.8376  9375.23  95.3508
 32.0356  9325.95  95.6644
 32.2336  9270.76  94.7631
 32.4316  9172.29  94.6697
 32.6296  9098.87  94.1276
 32.8276  9214.58  94.4962
 33.0256  9044.26  93.6954
 33.2236  9040.21  93.8133
 33.4216  9053.18  93.583
 33.6196  9052.47  93.8669
 33.8176  8997.39  93.7498
 34.0156  8970.38  93.2171
 34.2136  8948.11  93.141
 34.4116  8836.11  92.7073
 34.6096  8859.72  92.7117
 34.8076  8648.33  92.0003
 35.0056  8843.14  92.7264
 35.2036  8566.67  91.4749
 35.4016  8547.65  91.2959
 35.5996  8412.54  90.6051
 35.7976  8594.43  91.8555
 35.9956  8572.61  91.3798
 36.1936  8442.17  90.5459
 36.3916  8440.81  90.7212
 36.5896  8379.73  91.3621
 36.7876  8281.53  90.2435
 36.9856  8348.54  90.6361
 37.1836  8222.39  89.0493
 37.3816  8395.32  90.3511
 37.5796  8279.01  91.4557
 37.7776  8091.26  88.7778
 37.9756  8191.76  89.2176
 38.1736  8316.27  90.0926
 38.3716  8225.85  89.8805
 38.5696  8078.91  89.4525
 38.7676  7883.63  87.8702
 38.9656  8084.5  88.6143
 39.1636  7944.15  88.1028
 39.3616  8104.36  88.9243
 39.5596  7981.81  89.1024
 39.7576  7963.23  88.3693
 39.9556  7957.49  87.9696
 40.1536  8097.31  88.9522
 40.3516  8094.76  88.9453
 40.5496  8098.79  89.23
 40.7476  8100.09  89.2433
 40.9456  8176.71  89.41
 41.1436  8136.58  88.905
 41.3416  7964.19  88.2999
 41.5396  7998  88.2914
 41.7376  7985.96  88.4961
 41.9356  8027.07  88.5764
 42.1336  8003.71  88.5926
 42.3316  7987.03  88.7082
 42.5296  7894.65  87.7052
 42.7276  7973.13  88.3844
 42.9256  7982.83  88.3052
 43.1236  7909.28  88.0062
 43.3216  7929.47  87.8682
 43.5196  7756.41  86.9658
 43.7176  7765.58  87.4109
 43.9156  7736.72  87.1648
 44.1136  7722.95  86.6355
 44.3116  7654.59  86.2626
 44.5096  7678.8  86.709
 44.7076  7680.3  86.6502
 44.9056  7659.28  86.3916
 45.1036  7668.13  86.0691
 45.3016  7419.13  85.158
 45.4996  7476  85.419
 45.6976  7379.72  85.0469
 45.8956  7454.96  85.2937
 46.0936  7384.09  84.886
 46.2916  7441.1  85.1967
 46.4896  7420.84  85.1149
 46.6876  7352.51  85.4354
 46.8856  7284.46  84.2885
 47.0836  7169.18  83.8604
 47.2816  7149.97  83.6441
 47.4796  7213.11  84.1202
 47.6776  7065.39  84.1887
 47.8756  7056.6  83.3167
 48.0736  7182.86  84.518
 48.2716  7003.11  83.2741
 48.4696  7147.58  83.7186
 48.6676  7086.59  83.9454
 48.8656  7036.26  83.3761
 49.0636  7101.24  83.6998
 49.2616  6903.38  82.5668
 49.4596  6886.07  82.0338
 49.6576  7011.24  82.9917
 49.8556  6966.97  82.7567
 50.0536  6893.33  82.7645
 50.2516  6851.29  82.6421
 50.4496  6882.9  82.4906
 50.6476  6901.96  82.2891
 50.8456  6891.9  82.3028
 51.0436  6747.05  81.8887
 51.2416  6710.47  81.3444
 51.4396  6521.73  80.5779
 51.6376  6686.9  81.4149
 51.8356  6650.9  80.8322
 52.0336  6595.83  80.9987
 52.2316  6464.02  80.5306
 52.4296  6614.48  81.154
 52.6276  6596.21  81.1546
 52.8256  6599.59  80.741
 53.0236  6455.85  80.4916
 53.2216  6354.84  79.8929
 53.4196  6315.08  79.5657
 53.6176  6323.88  80.0977
 53.8156  6384.19  80.1435
 54.0136  6357.29  80.1567
 54.2116  6223.34  78.9725
 54.4096  6417.6  80.2541
 54.6076  6274.53  79.6989
 54.8056  6233.34  79.2191
 55.0036  6345.27  80.3223
 55.2016  6306.5  79.6755
 55.3996  6264.26  79.3258
 55.5976  6276.96  79.5916
 55.7956  6272.91  79.3873
 55.9936  6290.83  79.637
 56.1916  6347.45  80.0115
 56.3896  6286.07  79.6149
 56.5876  6169.87  79.4177
 56.7856  6206.49  79.1425
 56.9836  6138.9  78.4905
 57.1816  6242.17  79.4324
 57.3796  6225.08  79.2246
 57.5776  6136.16  78.5858
 57.7756  6211.58  79.7031
 57.9736  6124.8  78.8232
 58.1716  6197.53  79.5312
 58.3696  6137.22  78.8901
 58.5676  6224.42  78.9236
 58.7656  6307.6  80.1332
 58.9636  6297.93  80.1076
 59.1616  6215.81  79.7135
 59.3596  6273.43  79.3301
 59.5576  6360.03  79.9344
 59.7556  6297.2  79.9657
 59.9536  6359.9  80.2591
 60.1516  6325.53  80.9106
 60.1996  6304.68  83.9915