Folder: echemistpy/docs/examples/opeando_xrd/IS17_D/Data/IS17_D_fresh (part 4)

File: 17_D_fresh_f00010.xye
# /beamlines/bl04/projects/cycle2025-II/20250340211-lsimonelli/DATA/IS17_D_fresh/17_D_fresh_f00010.xye : mythproc.py merge -s 0.006 -l 0.5 -f /beamlines/bl04/inhouse/ff/FlatField/ff_20Nov2024rod8mm60s_17keV.raw -b True -c true -o xye /beamlines/bl04/projects/cycle2025-II/20250340211-lsimonelli/DATA/IS17_D_fresh/17_D_fresh_00010.dat
# IsMon = [6756081, 6757386, 6750137]  IsPos = [-1.4999, -2.4884, -3.4989]
# Wave = 0.4962  CalPath /beamlines/bl04/projects/cycle2025-II/20250340211-lsimonelli/DATA/Align/Si_Pos1_25keV_f00001.cal
# Date = 2025-09-25_07:32:42 Dt = 4.8000  Bin = 0.0060  <imon> = 6754535 +/- 3155 (Min/Max) 6750137 / 6757386
# icurr 249.6095  mocoIn 1.7022E-05  mocoOut 0.7986  i15 7.07207e+06  imon 6.75453e+06  i7 6.0000  iEMpd_timer 4.8000  iEMpd_1 3.5270E-08  iEMpd_2 7.9864E-08  iEMpd_3 1.8098E-08  iEMpd_4 4.8197E-08  iEMhp_timer 4.8000  iEMhp_1 4.8756E-06  iEMhp_2 -2.5130E-08  iEMhp_3 -2.3846E-08  iEMhp_4 -2.2132E-08
#      9776
 1.7416  67766.6  260.365
 1.9396  44166.5  210.456
 2.1376  31209.7  176.917
 2.3356  27949.2  167.07
 2.5336  26894.8  164.465
 2.7316  24928.4  158.435
 2.9296  24019.1  155.688
 3.1276  23433.5  153.329
 3.3256  23586.7  153.5
 3.5236  25313.6  158.826
 3.7216  23226.3  153.398
 3.9196  23238.6  152.665
 4.1176  22637.2  150.443
 4.3156  24155.8  155.583
 4.5136  27022.3  163.509
 4.7116  27800.8  167.005
 4.9096  27197.5  164.612
 5.1076  26790  163.947
 5.3056  27108.6  164.673
 5.5036  27365.2  165.312
 5.7016  27980.2  167.139
 5.8996  28490.2  167.857
 6.0976  29239.2  171.508
 6.2956  30123.9  173.412
 6.4936  30691.2  174.212
 6.6916  31006.1  176.117
 6.8896  32126.4  179.135
 7.0876  33121.9  182.627
 7.2856  33274.4  182.078
 7.4836  34161.2  183.793
 7.6816  34819.6  186.115
 7.8796  36628.5  190.888
 8.0776  40244.6  201.141
 8.2756  40992.5  201.556
 8.4736  41366.4  202.256
 8.6716  41105.9  202.262
 8.8696  40938.7  202.372
 9.0676  40135.2  199.712
 9.2656  39214.6  198.131
 9.4636  38525.5  194.726
 9.6616  37753.9  193.582
 9.8596  36556.7  189.853
 10.0576  34926.6  186.275
 10.2556  33517.6  182.934
 10.4536  35247.5  187.16
 10.6516  35345.2  187.634
 10.8496  30850.2  174.725
 11.0476  30621.2  174.092
 11.2456  32069.3  178.748
 11.4436  29860.7  171.61
 11.6416  28671.2  168.534
 11.8396  27267.4  164.557
 12.0376  27189.5  163.962
 12.2356  28170.4  167.297
 12.4336  26977.8  163.255
 12.6316  26223.4  161.223
 12.8296  26801.5  162.623
 13.0276  27275.2  164.245
 13.2256  26969.6  163.701
 13.4236  27038.8  163.663
 13.6216  26758.4  162.829
 13.8196  27367.4  164.42
 14.0176  26266.1  161.271
 14.2156  25893.1  159.238
 14.4136  24593.3  156.62
 14.6116  24444  155.311
 14.8096  23433.3  152.07
 15.0076  22474.3  152.878
 15.2056  22292.6  147.898
 15.4036  21029.6  144.521
 15.6016  20677  142.339
 15.7996  20265  141.221
 15.9976  19189.2  141.138
 16.1956  18508.9  135.763
 16.3936  17940.8  132.808
 16.5916  17826.1  133.041
 16.7896  17990.3  133.716
 16.9876  17817.2  134.571
 17.1856  17796.5  132.761
 17.3836  16947.7  129.444
 17.5816  16514.6  128.297
 17.7796  16469.2  128.052
 17.9776  16494.6  129.011
 18.1756  17502.4  131.48
 18.3736  17233.5  131.02
 18.5716  15963.1  125.839
 18.7696  16088.8  125.887
 18.9676  15639.2  123.907
 19.1656  15570  124.236
 19.3636  15652.4  124.759
 19.5616  15385.2  123.873
 19.7596  15549.7  123.889
 19.9576  15975.2  125.644
 20.1556  15188.4  123.061
 20.3536  14928  121.35
 20.5516  14625.6  120.582
 20.7496  14520.1  120.082
 20.9476  14619.9  120.222
 21.1456  14929.2  121.852
 21.3436  14419.7  119.688
 21.5416  14177.2  118.682
 21.7396  14148  118.397
 21.9376  14184.6  118.319
 22.1356  14415.1  119.38
 22.3336  14361.2  119.488
 22.5316  14090.7  118.462
 22.7296  13918.8  117.07
 22.9276  13891.5  117.663
 23.1256  14466.5  119.519
 23.3236  13637  116.601
 23.5216  13379.3  115.15
 23.7196  13476  115.519
 23.9176  13254.5  114.301
 24.1156  13302.4  115.007
 24.3136  12931.5  114.186
 24.5116  13105.2  114.452
 24.7096  12844.9  113.12
 24.9076  12420.5  111.259
 25.1056  12278  111.107
 25.3036  12270.5  110.571
 25.5016  12299  110.737
 25.6996  12202.9  109.864
 25.8976  12242.8  110.499
 26.0956  12233.7  110.499
 26.2936  12015.3  109.118
 26.4916  12113  109.442
 26.6896  11652.3  107.646
 26.8876  11702.5  107.723
 27.0856  11538  107.038
 27.2836  11348.9  106.027
 27.4816  11515.6  106.723
 27.6796  11265.9  105.963
 27.8776  11248.2  105.725
 28.0756  11180.4  105.715
 28.2736  11225.5  105.488
 28.4716  10692.2  103.002
 28.6696  10929.2  103.978
 28.8676  10874  104.08
 29.0656  10671.8  103.084
 29.2636  10681.3  102.909
 29.4616  10582.1  102.632
 29.6596  10756.7  103.019
 29.8576  10405.8  102.036
 30.0556  10566.6  102.706
 30.2536  10656.6  102.911
 30.4516  10300.7  100.826
 30.6496  10372.6  100.892
 30.8476  10247.2  100.741
 31.0456  10270.2  100.805
 31.2436  10036.1  98.8912
 31.4416  10043.7  99.0908
 31.6396  10334.8  100.565
 31.8376  10147.3  99.1843
 32.0356  10176.4  99.9166
 32.2336  9963.68  98.2257
 32.4316  9850.41  98.1032
 32.6296  9863.44  97.9954
 32.8276  9820.7  97.5427
 33.0256  9827.14  97.6519
 33.2236  9695.73  97.154
 33.4216  9717.77  96.949
 33.6196  9624.08  96.7804
 33.8176  9599.48  96.8383
 34.0156  9399.99  95.4279
 34.2136  9490.16  95.9106
 34.4116  9264.46  94.9373
 34.6096  9256.25  94.7544
 34.8076  9224.08  95.0164
 35.0056  9194.87  94.5316
 35.2036  9101.9  94.2845
 35.4016  9077.14  94.0775
 35.5996  9058.8  94.022
 35.7976  9006.49  94.0405
 35.9956  9039.67  93.8434
 36.1936  8957.52  93.2761
 36.3916  8865.25  92.9803
 36.5896  8974.95  94.5653
 36.7876  8864.27  93.3649
 36.9856  8422.59  91.0327
 37.1836  8647.33  91.3192
 37.3816  8534.43  91.106
 37.5796  8503.27  92.6938
 37.7776  8677.08  91.9491
 37.9756  8451.22  90.6268
 38.1736  8656.57  91.9247
 38.3716  8441.62  91.0521
 38.5696  8386.35  91.1333
 38.7676  8418.5  90.7887
 38.9656  8401.24  90.3138
 39.1636  8354.81  90.3464
 39.3616  8409.44  90.5691
 39.5596  8136.98  89.956
 39.7576  8106.56  89.1662
 39.9556  8251.23  89.5903
 40.1536  8297.53  90.0418
 40.3516  8198.85  89.5184
 40.5496  8202.3  89.7948
 40.7476  8280.64  90.2319
 40.9456  8306.02  90.1178
 41.1436  8178.11  89.1354
 41.3416  8179.43  89.4873
 41.5396  8197.1  89.386
 41.7376  8164.15  89.4694
 41.9356  8104.69  89.0031
 42.1336  8105.2  89.1537
 42.3316  8099.04  89.3289
 42.5296  7979.44  88.1754
 42.7276  8123.75  89.2149
 42.9256  8124.04  89.0761
 43.1236  7973.24  88.3582
 43.3216  7932.91  87.8895
 43.5196  7961.19  88.1012
 43.7176  7916.74  88.26
 43.9156  7844.73  87.7748
 44.1136  7974.72  88.0403
 44.3116  7992.21  88.1592
 44.5096  7898.01  87.9433
 44.7076  7905.11  87.9131
 44.9056  7785.1  87.0991
 45.1036  7769.36  86.6431
 45.3016  7607.74  86.2418
 45.4996  7596.93  86.1157
 45.6976  7533.64  85.9339
 45.8956  7591.8  86.0548
 46.0936  7556.57  85.8512
 46.2916  7742.34  86.8892
 46.4896  7610.26  86.1863
 46.6876  7595.38  86.8247
 46.8856  7572.71  85.9602
 47.0836  7485.36  85.7072
 47.2816  7493.47  85.6186
 47.4796  7566.81  86.1637
 47.6776  7491.58  86.6859
 47.8756  7496.39  85.87
 48.0736  7497.87  86.3511
 48.2716  7496.91  86.1541
 48.4696  7479.65  85.6434
 48.6676  7464.3  86.1587
 48.8656  7620.57  86.7852
 49.0636  7440.27  85.6898
 49.2616  7401.72  85.4994
 49.4596  7440.48  85.283
 49.6576  7456.56  85.6071
 49.8556  7440.1  85.5007
 50.0536  7361.12  85.5288
 50.2516  7385.81  85.8072
 50.4496  7414.07  85.604
 50.6476  7533.55  85.9717
 50.8456  7305.68  84.7634
 51.0436  7419.55  85.8759
 51.2416  7392.93  85.3908
 51.4396  7275.17  85.1125
 51.6376  7399.96  85.6495
 51.8356  7381.16  85.1477
 52.0336  7171.01  84.4577
 52.2316  7081.17  84.2879
 52.4296  7144.26  84.3492
 52.6276  7204.56  84.8278
 52.8256  7256.24  84.6583
 53.0236  7119.65  84.5071
 53.2216  7067.92  84.2332
 53.4196  7094.19  84.3227
 53.6176  6867.52  83.4483
 53.8156  7048.02  84.2014
 54.0136  7139.45  84.9488
 54.2116  7001.19  83.7601
 54.4096  7054.65  84.1322
 54.6076  6958.78  83.9277
 54.8056  6984.27  83.8605
 55.0036  6945.15  84.0374
 55.2016  6903.09  83.3588
 55.3996  6954.46  83.5827
 55.5976  7014.32  84.1395
 55.7956  6893.24  83.2153
 55.9936  6840.13  83.0365
 56.1916  6872.19  83.2514
 56.3896  6946.23  83.6929
 56.5876  6768.34  83.1735
 56.7856  6843.49  83.1048
 56.9836  6835.14  82.8234
 57.1816  6962.01  83.8928
 57.3796  6939.31  83.6374
 57.5776  6874.12  83.1801
 57.7756  6863.03  83.7828
 57.9736  6781.59  82.9407
 58.1716  6915.56  84.016
 58.3696  6899.09  83.6455
 58.5676  6998.82  83.6697
 58.7656  6969.19  84.2372
 58.9636  6932.3  84.043
 59.1616  6829.49  83.5612
 59.3596  6980.98  83.7096
 59.5576  6957.58  83.6308
 59.7556  6825.31  83.2768
 59.9536  7017.85  84.3342
 60.1516  6806.08  83.9534
 60.1996  6918.46  88.0118

File: 17_D_fresh_f00011.xye
# /beamlines/bl04/projects/cycle2025-II/20250340211-lsimonelli/DATA/IS17_D_fresh/17_D_fresh_f00011.xye : mythproc.py merge -s 0.006 -l 0.5 -f /beamlines/bl04/inhouse/ff/FlatField/ff_20Nov2024rod8mm60s_17keV.raw -b True -c true -o xye /beamlines/bl04/projects/cycle2025-II/20250340211-lsimonelli/DATA/IS17_D_fresh/17_D_fresh_00011.dat
# IsMon = [6774220, 6776208, 6777311]  IsPos = [-1.4999, -2.4884, -3.4988]
# Wave = 0.4962  CalPath /beamlines/bl04/projects/cycle2025-II/20250340211-lsimonelli/DATA/Align/Si_Pos1_25keV_f00001.cal
# Date = 2025-09-25_11:43:32 Dt = 4.8000  Bin = 0.0060  <imon> = 6775913 +/- 1279 (Min/Max) 6774220 / 6777311
# icurr 251.7395  mocoIn 1.7177E-05  mocoOut 0.8058  i15 7.09327e+06  imon 6.77591e+06  i7 5.0000  iEMpd_timer 4.8000  iEMpd_1 3.4657E-08  iEMpd_2 7.6989E-08  iEMpd_3 1.6192E-08  iEMpd_4 4.7283E-08  iEMhp_timer 4.8000  iEMhp_1 4.9177E-06  iEMhp_2 -2.5799E-08  iEMhp_3 -2.5072E-08  iEMhp_4 -2.0012E-08
#      9776
 1.7416  69689.4  264.096
 1.9396  45714.5  214.172
 2.1376  32372.5  180.226
 2.3356  29125.2  170.589
 2.5336  26907.7  164.543
 2.7316  25747.3  161.048
 2.9296  24905.5  158.569
 3.1276  24524.6  156.893
 3.3256  24396.8  156.143
 3.5236  26111.8  161.345
 3.7216  23998.2  155.927
 3.9196  23655.5  154.029
 4.1176  23680.7  153.878
 4.3156  24904.7  157.961
 4.5136  27529.6  165.043
 4.7116  28497.4  169.083
 4.9096  27937.3  166.832
 5.1076  27858.9  167.194
 5.3056  28384.8  168.485
 5.5036  28445.5  168.553
 5.7016  28872.4  169.785
 5.8996  29805.4  171.685
 6.0976  30242.9  174.435
 6.2956  31006.1  175.925
 6.4936  31480.5  176.435
 6.6916  32024  178.987
 6.8896  32876.4  181.215
 7.0876  33920.6  184.814
 7.2856  33993.6  184.033
 7.4836  34480  184.652
 7.6816  35639.2  188.293
 7.8796  37296.9  192.594
 8.0776  39067.5  198.156
 8.2756  41077.3  201.718
 8.4736  42363.2  204.656
 8.6716  41440.3  203.082
 8.8696  40977.5  202.45
 9.0676  40273.5  200.036
 9.2656  39482.8  198.784
 9.4636  39051  195.999
 9.6616  38505.3  195.456
 9.8596  37193.9  191.545
 10.0576  35437.7  187.668
 10.2556  34204.9  184.836
 10.4536  33020.4  181.196
 10.6516  32224.4  179.193
 10.8496  31199.3  175.701
 11.0476  30609.5  174.061
 11.2456  29859.1  172.472
 11.4436  29729.5  171.226
 11.6416  29270.5  170.285
 11.8396  27663.3  165.757
 12.0376  27665.5  165.374
 12.2356  26910.3  163.527
 12.4336  27135.9  163.727
 12.6316  26709.6  162.705
 12.8296  26946.1  163.061
 13.0276  27579.3  165.148
 13.2256  27686.9  165.859
 13.4236  27428.6  164.839
 13.6216  27234.1  164.278
 13.8196  27312.4  164.259
 14.0176  27036.6  163.731
 14.2156  26391  160.767
 14.4136  25156.3  158.408
 14.6116  24848.4  156.591
 14.8096  23977.7  153.808
 15.0076  22747.1  153.834
 15.2056  22557.5  148.754
 15.4036  21456.8  145.971
 15.6016  20946.5  143.247
 15.7996  20500.1  141.999
 15.9976  19455  141.463
 16.1956  18708  136.478
 16.3936  18405.5  134.504
 16.5916  18228.2  134.521
 16.7896  18306.9  134.874
 16.9876  18111.8  135.693
 17.1856  18062.5  133.775
 17.3836  17488.6  131.525
 17.5816  16848.5  129.615
 17.7796  16798.9  129.348
 17.9776  16538.7  129.177
 18.1756  16627.6  128.147
 18.3736  16655.8  128.813
 18.5716  16050.7  126.183
 18.7696  16233.5  126.451
 18.9676  15879.9  124.863
 19.1656  15828  125.242
 19.3636  15804.6  125.366
 19.5616  15626.2  124.826
 19.7596  15698.7  124.489
 19.9576  15959.2  125.576
 20.1556  15857.5  125.737
 20.3536  15262.4  122.696
 20.5516  14911.2  121.75
 20.7496  14698.5  120.814
 20.9476  14574.3  120.033
 21.1456  14742.3  121.079
 21.3436  14568.9  120.314
 21.5416  14437.9  119.762
 21.7396  14372.6  119.333
 21.9376  14307.9  118.818
 22.1356  14317.4  118.987
 22.3336  14423.6  119.744
 22.5316  14197.9  118.901
 22.7296  14273  118.541
 22.9276  14132.9  118.661
 23.1256  14267.1  118.664
 23.3236  14087.4  118.516
 23.5216  13827.8  117.06
 23.7196  13678.9  116.364
 23.9176  13626  115.889
 24.1156  13288.8  114.937
 24.3136  12992.6  114.475
 24.5116  13211.8  114.94
 24.7096  12813.7  113.007
 24.9076  12610.5  112.135
 25.1056  12470.9  111.999
 25.3036  12425.2  111.27
 25.5016  12335  110.898
 25.6996  12169.5  109.713
 25.8976  12137.3  110.035
 26.0956  12157.1  110.14
 26.2936  12118.6  109.594
 26.4916  12240  110.021
 26.6896  11784.5  108.255
 26.8876  11690.4  107.676
 27.0856  11690.2  107.727
 27.2836  11476  106.62
 27.4816  11493.4  106.629
 27.6796  11293.7  106.098
 27.8776  11263.2  105.802
 28.0756  11301.5  106.279
 28.2736  11195.1  105.343
 28.4716  11026.5  104.595
 28.6696  11200.8  105.261
 28.8676  10885.8  104.134
 29.0656  10780.6  103.609
 29.2636  10716.7  103.088
 29.4616  10781.1  103.582
 29.6596  10749.1  102.97
 29.8576  10629.8  103.115
 30.0556  10566  102.679
 30.2536  10575.3  102.504
 30.4516  10361.7  101.111
 30.6496  10541.7  101.7
 30.8476  10339.4  101.184
 31.0456  10210  100.51
 31.2436  10266.5  100.021
 31.4416  10397.2  100.842
 31.6396  10290.7  100.368
 31.8376  10388.1  100.374
 32.0356  10064.3  99.3873
 32.2336  10090.2  98.8627
 32.4316  9855.9  98.1301
 32.6296  9964.94  98.5051
 32.8276  9896.95  97.9256
 33.0256  9762.63  97.3397
 33.2236  9721.07  97.2856
 33.4216  9784.77  97.2722
 33.6196  9841.99  97.8693
 33.8176  9599.66  96.8395
 34.0156  9482.26  95.8465
 34.2136  9561.5  96.2802
 34.4116  9374.7  95.4956
 34.6096  9327.98  95.1247
 34.8076  9284.09  95.3213
 35.0056  9223.72  94.6866
 35.2036  9173.01  94.6545
 35.4016  9167  94.5445
 35.5996  9072.04  94.0899
 35.7976  9060.06  94.3167
 35.9956  9066.79  93.9857
 36.1936  9021.73  93.614
 36.3916  8893.34  93.1285
 36.5896  8874.26  94.0313
 36.7876  8808.61  93.0549
 36.9856  8574.84  91.8385
 37.1836  8714.06  91.663
 37.3816  8663.98  91.7752
 37.5796  8616.8  93.3112
 37.7776  8559.59  91.3201
 37.9756  8636.56  91.6167
 38.1736  8665.17  91.9655
 38.3716  8516.34  91.4516
 38.5696  8566.53  92.1108
 38.7676  8278.28  90.0482
 38.9656  8369.05  90.1675
 39.1636  8362.93  90.4049
 39.3616  8454.72  90.8303
 39.5596  8307.85  90.8804
 39.7576  8163.63  89.4799
 39.9556  8335.89  90.0447
 40.1536  8409  90.6479
 40.3516  8324.27  90.1984
 40.5496  8428.85  91.033
 40.7476  8386.89  90.8158
 40.9456  8441.07  90.8487
 41.1436  8327.54  89.95
 41.3416  8234.87  89.7841
 41.5396  8203.61  89.4141
 41.7376  8191.85  89.6189
 41.9356  8135.15  89.1707
 42.1336  8178.72  89.5619
 42.3316  8126.08  89.4739
 42.5296  8137.99  89.0455
 42.7276  8039.98  88.7538
 42.9256  8095.1  88.9263
 43.1236  8055.76  88.8162
 43.3216  8059.71  88.588
 43.5196  7887.55  87.703
 43.7176  8019.96  88.8315
 43.9156  8063.25  88.9766
 44.1136  7854.91  87.3648
 44.3116  8085.04  88.6506
 44.5096  8029.5  88.6632
 44.7076  7977.71  88.3054
 44.9056  7881.68  87.6373
 45.1036  7790.07  86.7398
 45.3016  7704.47  86.7805
 45.4996  7737.75  86.8983
 45.6976  7736.88  87.0708
 45.8956  7606.35  86.1519
 46.0936  7664.46  86.4899
 46.2916  7791.99  87.1809
 46.4896  7747.2  86.9764
 46.6876  7607.18  86.9102
 46.8856  7658.1  86.4443
 47.0836  7552.02  86.0892
 47.2816  7648  86.5049
 47.4796  7710.49  86.9781
 47.6776  7528.76  86.8978
 47.8756  7579.97  86.3429
 48.0736  7653.68  87.2371
 48.2716  7579.37  86.625
 48.4696  7576.38  86.1989
 48.6676  7536  86.5699
 48.8656  7597.29  86.6464
 49.0636  7476.13  85.9018
 49.2616  7527.87  86.2201
 49.4596  7544.65  85.873
 49.6576  7519.81  85.971
 49.8556  7415.72  85.3598
 50.0536  7422.07  85.8821
 50.2516  7455.77  86.2126
 50.4496  7443.43  85.7762
 50.6476  7605.78  86.381
 50.8456  7388.75  85.2377
 51.0436  7385.67  85.6686
 51.2416  7410.17  85.4715
 51.4396  7190.59  84.6029
 51.6376  7503.35  86.2454
 51.8356  7488.79  85.7614
 52.0336  7107.64  84.0769
 52.2316  7057.37  84.1449
 52.4296  7277.04  85.1178
 52.6276  7252.8  85.0973
 52.8256  7164.05  84.1022
 53.0236  7123.91  84.5569
 53.2216  7098.54  84.4368
 53.4196  7036.63  83.9979
 53.6176  6979.27  84.144
 53.8156  7135.86  84.7404
 54.0136  7059.83  84.4674
 54.2116  7064.31  84.1428
 54.4096  7102.53  84.4242
 54.6076  7001.75  84.1883
 54.8056  6948.23  83.6375
 55.0036  6986.8  84.2863
 55.2016  6931.09  83.4667
 55.3996  7050.9  84.1585
 55.5976  7040.7  84.2881
 55.7956  6989.74  83.795
 55.9936  6924.83  83.548
 56.1916  7059.09  84.3649
 56.3896  7020.29  84.1322
 56.5876  6920.15  84.1126
 56.7856  6908.24  83.4899
 56.9836  6750.52  82.308
 57.1816  6943.29  83.8769
 57.3796  6892.12  83.3539
 57.5776  7064.95  84.3218
 57.7756  6860.92  83.7678
 57.9736  6969.05  84.0782
 58.1716  6889.88  83.8477
 58.3696  6970.61  84.0752
 58.5676  7079.41  84.1475
 58.7656  6842  83.4543
 58.9636  7021.97  84.5796
 59.1616  7031.17  84.7759
 59.3596  6973.48  83.6285
 59.5576  7050.14  84.1491
 59.7556  7040.02  84.5402
 59.9536  7061.2  84.558
 60.1516  6976.08  84.9589
 60.1996  0.0000000E+00  0.0000000E+00