Folder: echemistpy/docs/examples/opeando_xrd/IS17_D/Data/IS17_D (part 41)

File: 17_Da_f00107.xye
# /beamlines/bl04/projects/cycle2025-II/20250340211-lsimonelli/DATA/IS17_D/17_Da_f00107.xye : mythproc.py merge -s 0.006 -l 0.5 -f /beamlines/bl04/inhouse/ff/FlatField/ff_20Nov2024rod8mm60s_17keV.raw -b True -c true -o xye /beamlines/bl04/projects/cycle2025-II/20250340211-lsimonelli/DATA/IS17_D/17_Da_00107.dat
# IsMon = [6775498, 6779978, 6779728]  IsPos = [-1.4999, -2.4884, -3.4988]
# Wave = 0.4962  CalPath /beamlines/bl04/projects/cycle2025-II/20250340211-lsimonelli/DATA/Align/Si_Pos1_25keV_f00001.cal
# Date = 2025-09-24_23:24:26 Dt = 4.8000  Bin = 0.0060  <imon> = 6778401 +/- 2056 (Min/Max) 6775498 / 6779978
# icurr 251.6229  mocoIn 1.7162E-05  mocoOut 0.8053  i15 7.09677e+06  imon 6.7784e+06  i7 4.3333  iEMpd_timer 4.8000  iEMpd_1 3.4814E-08  iEMpd_2 7.8897E-08  iEMpd_3 1.6285E-08  iEMpd_4 4.8361E-08  iEMhp_timer 4.8000  iEMhp_1 4.9165E-06  iEMhp_2 -2.5349E-08  iEMhp_3 -2.4712E-08  iEMhp_4 -2.0506E-08
#      9776
 1.7416  70649.7  265.933
 1.9396  47135.1  217.498
 2.1376  33946.1  184.571
 2.3356  30839  175.552
 2.5336  28846.8  170.384
 2.7316  27594.9  166.736
 2.9296  26291.6  162.92
 3.1276  25392.3  159.651
 3.3256  25014  158.104
 3.5236  26571.8  162.752
 3.7216  24064.2  156.14
 3.9196  23387.9  153.144
 4.1176  23322.9  152.717
 4.3156  24615.8  157.042
 4.5136  26950.1  163.295
 4.7116  27907.4  167.322
 4.9096  27408.9  165.248
 5.1076  26896.6  164.289
 5.3056  27210.8  164.964
 5.5036  27118.1  164.57
 5.7016  27482  165.645
 5.8996  27995.1  166.387
 6.0976  28529.5  169.428
 6.2956  29189.9  170.692
 6.4936  29992.3  172.197
 6.6916  30222.5  173.881
 6.8896  31160.2  176.417
 7.0876  32026.8  179.583
 7.2856  31987.1  178.525
 7.4836  32449.8  179.139
 7.6816  33214.5  181.77
 7.8796  34752.6  185.905
 8.0776  36153  190.612
 8.2756  37877.6  193.693
 8.4736  38644.1  195.453
 8.6716  37674.3  193.619
 8.8696  37499.8  193.687
 9.0676  37048.7  191.868
 9.2656  35895.7  189.551
 9.4636  35320.5  186.413
 9.6616  34362.3  184.654
 9.8596  33175.2  180.903
 10.0576  31520.4  176.987
 10.2556  30372.7  174.184
 10.4536  29154.2  170.261
 10.6516  28378.8  168.171
 10.8496  27592.1  165.234
 11.0476  26911.4  163.209
 11.2456  26069.7  161.165
 11.4436  25698.8  159.194
 11.6416  27486.6  165.01
 11.8396  24991.8  157.555
 12.0376  25091.4  157.493
 12.2356  24430.4  155.809
 12.4336  24232.5  154.723
 12.6316  23911.7  153.971
 12.8296  24291  154.817
 13.0276  24853.5  156.775
 13.2256  25125.6  158.006
 13.4236  24929.8  157.156
 13.6216  24882.3  157.032
 13.8196  24557.2  155.763
 14.0176  24306.1  155.247
 14.2156  23770.5  152.572
 14.4136  22822  150.879
 14.6116  22309.9  148.382
 14.8096  21784.2  146.608
 15.0076  20561.5  146.279
 15.2056  20440.6  141.598
 15.4036  19198.6  138.068
 15.6016  18996  136.407
 15.7996  18516.4  134.946
 15.9976  17709.2  134.938
 16.1956  17161.2  130.721
 16.3936  16626.4  127.845
 16.5916  16585.6  128.323
 16.7896  16397  127.644
 16.9876  16383.1  129.055
 17.1856  16176.4  126.599
 17.3836  15599.6  124.228
 17.5816  15068.5  122.581
 17.7796  14958.5  122.065
 17.9776  14847.1  122.396
 18.1756  14832.2  121.04
 18.3736  14522.6  120.279
 18.5716  14388.8  119.475
 18.7696  14372.2  118.98
 18.9676  14134.5  117.803
 19.1656  13956.5  117.612
 19.3636  13985.9  117.937
 19.5616  14048.7  118.375
 19.7596  13997.3  117.567
 19.9576  14001.6  117.627
 20.1556  14985.4  122.225
 20.3536  14333.2  118.906
 20.5516  13708.1  116.74
 20.7496  13275  114.817
 20.9476  13249.2  114.458
 21.1456  13353.5  115.235
 21.3436  13001.6  113.659
 21.5416  13050.7  113.869
 21.7396  12884  112.989
 21.9376  12885.8  112.758
 22.1356  12821.7  112.607
 22.3336  12969.2  113.538
 22.5316  12965.9  113.61
 22.7296  12951.8  112.908
 22.9276  12755.2  112.724
 23.1256  12972.7  113.156
 23.3236  12995.3  113.835
 23.5216  12637  111.9
 23.7196  12548.8  111.453
 23.9176  12574.4  111.339
 24.1156  12465.5  111.325
 24.3136  11832  109.248
 24.5116  12074.6  109.885
 24.7096  11664.8  107.821
 24.9076  11416.7  106.696
 25.1056  11144.3  105.876
 25.3036  11153.2  105.418
 25.5016  11159.9  105.486
 25.6996  11136.9  104.96
 25.8976  11049.3  104.989
 26.0956  11128.3  105.376
 26.2936  10973.6  104.286
 26.4916  11070.1  104.626
 26.6896  10826  103.756
 26.8876  10672.8  102.886
 27.0856  10713.8  103.125
 27.2836  10496.9  101.969
 27.4816  10309  100.989
 27.6796  10281.8  101.232
 27.8776  10185.1  100.616
 28.0756  10236.1  101.147
 28.2736  10170.2  100.407
 28.4716  9978.57  99.5068
 28.6696  10091.3  99.9106
 28.8676  9845.21  99.0342
 29.0656  9856.15  99.0692
 29.2636  9840.46  98.7813
 29.4616  9624.65  97.8629
 29.6596  9747.86  98.0527
 29.8576  9548.31  97.7281
 30.0556  9683.51  98.2953
 30.2536  9726.42  98.3046
 30.4516  9589.12  97.2752
 30.6496  9639.11  97.2551
 30.8476  9484.16  96.9103
 31.0456  9466.39  96.7831
 31.2436  9419.11  95.8073
 31.4416  9325.73  95.508
 31.6396  9371.72  95.7899
 31.8376  9391.04  95.4345
 32.0356  9154.63  94.7773
 32.2336  8973.14  93.2403
 32.4316  9056.88  94.0712
 32.6296  9077.41  94.0125
 32.8276  9062.07  93.7128
 33.0256  8968.82  93.299
 33.2236  8996.89  93.5991
 33.4216  9066.25  93.6379
 33.6196  8961.21  93.3912
 33.8176  8962.87  93.5671
 34.0156  8797  92.3132
 34.2136  8843.65  92.6002
 34.4116  8682.47  91.8994
 34.6096  8722.59  91.9847
 34.8076  8646.27  92.0016
 35.0056  8625.06  91.5754
 35.2036  8602.33  91.6634
 35.4016  8746.97  92.3514
 35.5996  8473.59  90.9316
 35.7976  8439.63  91.0232
 35.9956  8606.91  91.5664
 36.1936  8385.99  90.2529
 36.3916  8404.47  90.5249
 36.5896  8363.1  91.2732
 36.7876  8339.45  90.5476
 36.9856  8349.27  90.6281
 37.1836  8286.58  89.3852
 37.3816  8316.69  89.9142
 37.5796  8186.43  90.945
 37.7776  8039.61  88.5139
 37.9756  7971.63  88.0184
 38.1736  8256.74  89.7733
 38.3716  8103.22  89.2143
 38.5696  8109.94  89.6233
 38.7676  7750.58  87.1316
 38.9656  7883.64  87.5125
 39.1636  7907.75  87.9104
 39.3616  7986.62  88.2772
 39.5596  7830.18  88.2474
 39.7576  7890.97  87.9665
 39.9556  7890.38  87.6006
 40.1536  8087.17  88.8961
 40.3516  8015.32  88.5074
 40.5496  7996.64  88.6657
 40.7476  8064.1  89.04
 40.9456  8143.12  89.2272
 41.1436  8064.67  88.5118
 41.3416  8103.75  89.0646
 41.5396  7925.15  87.8878
 41.7376  7895.7  87.9916
 41.9356  7934.78  88.0681
 42.1336  7970.01  88.4157
 42.3316  7992.96  88.7357
 42.5296  7883.74  87.6443
 42.7276  7928.89  88.1368
 42.9256  7932.13  88.0196
 43.1236  7751.95  87.1277
 43.3216  7879.46  87.5926
 43.5196  7733.84  86.8437
 43.7176  7691.89  86.9943
 43.9156  7569.93  86.2098
 44.1136  7735.02  86.6929
 44.3116  7595.56  85.9188
 44.5096  7609.01  86.3012
 44.7076  7594.26  86.1525
 44.9056  7627.79  86.2203
 45.1036  7464.54  84.9191
 45.3016  7462.22  85.4088
 45.4996  7494.31  85.5317
 45.6976  7316.84  84.6839
 45.8956  7378.51  84.8594
 46.0936  7395.75  84.9628
 46.2916  7372.87  84.8109
 46.4896  7421.79  85.1256
 46.6876  7266.29  84.9385
 46.8856  7234.9  84.0172
 47.0836  7127.75  83.6387
 47.2816  7115.42  83.4412
 47.4796  7173.55  83.8897
 47.6776  7123.22  84.5352
 47.8756  7019.72  83.1021
 48.0736  7109.75  84.0838
 48.2716  7002.38  83.2655
 48.4696  7159.84  83.7958
 48.6676  6970.83  83.2504
 48.8656  7087.22  83.677
 49.0636  7050.14  83.4023
 49.2616  6943.7  82.8015
 49.4596  6986.51  82.6347
 49.6576  6950.73  82.6482
 49.8556  6907.35  82.4044
 50.0536  6874.91  82.6581
 50.2516  6844.81  82.6112
 50.4496  6828.99  82.1652
 50.6476  6888.79  82.2102
 50.8456  6777.11  81.6368
 51.0436  6809.43  82.2563
 51.2416  6666.59  81.0673
 51.4396  6569.4  80.8618
 51.6376  6591.56  80.8272
 51.8356  6629.77  80.6956
 52.0336  6416.96  79.9008
 52.2316  6548.04  81.0571
 52.4296  6473.9  80.2949
 52.6276  6466.43  80.3488
 52.8256  6553.48  80.4537
 53.0236  6361.37  79.9036
 53.2216  6391.44  80.1271
 53.4196  6383.86  80.0065
 53.6176  6327.95  80.1265
 53.8156  6298.74  79.6162
 54.0136  6433.13  80.6343
 54.2116  6331.59  79.6634
 54.4096  6326.33  79.6728
 54.6076  6263.19  79.6196
 54.8056  6219.67  79.1376
 55.0036  6224.32  79.5483
 55.2016  6240.43  79.2061
 55.3996  6290.91  79.4955
 55.5976  6191.09  79.048
 55.7956  6306.92  79.6009
 55.9936  6139.21  78.675
 56.1916  6192.01  79.0188
 56.3896  6260.1  79.4465
 56.5876  6119.46  79.1002
 56.7856  6247.14  79.4008
 56.9836  6181.38  78.7638
 57.1816  6259.69  79.6471
 57.3796  6204.29  79.0897
 57.5776  6147.4  78.6557
 57.7756  6068.23  78.7807
 57.9736  6152.13  78.9905
 58.1716  6227.34  79.7233
 58.3696  6105.61  78.6756
 58.5676  6124.48  78.2763
 58.7656  6213.65  79.5269
 58.9636  6315.19  80.2073
 59.1616  6219.36  79.7248
 59.3596  6268.01  79.2871
 59.5576  6344.6  79.828
 59.7556  6167.71  79.1299
 59.9536  6245.86  79.5269
 60.1516  6268.01  80.5324
 60.1996  0.0000000E+00  0.0000000E+00

File: 17_Da_f00108.xye
# /beamlines/bl04/projects/cycle2025-II/20250340211-lsimonelli/DATA/IS17_D/17_Da_f00108.xye : mythproc.py merge -s 0.006 -l 0.5 -f /beamlines/bl04/inhouse/ff/FlatField/ff_20Nov2024rod8mm60s_17keV.raw -b True -c true -o xye /beamlines/bl04/projects/cycle2025-II/20250340211-lsimonelli/DATA/IS17_D/17_Da_00108.dat
# IsMon = [6781911, 6781662, 6783660]  IsPos = [-1.4999, -2.4884, -3.4988]
# Wave = 0.4962  CalPath /beamlines/bl04/projects/cycle2025-II/20250340211-lsimonelli/DATA/Align/Si_Pos1_25keV_f00001.cal
# Date = 2025-09-24_23:41:02 Dt = 4.8000  Bin = 0.0060  <imon> = 6782411 +/- 889 (Min/Max) 6781662 / 6783660
# icurr 252.3473  mocoIn 1.7212E-05  mocoOut 0.8076  i15 7.10264e+06  imon 6.78241e+06  i7 6.3333  iEMpd_timer 4.8000  iEMpd_1 3.4341E-08  iEMpd_2 7.6733E-08  iEMpd_3 1.5520E-08  iEMpd_4 4.7566E-08  iEMhp_timer 4.8000  iEMhp_1 4.9295E-06  iEMhp_2 -2.4694E-08  iEMhp_3 -2.3509E-08  iEMhp_4 -1.9878E-08
#      9776
 1.7416  71330.3  267.164
 1.9396  47154.1  217.487
 2.1376  34346  185.622
 2.3356  31167.4  176.453
 2.5336  29112  171.135
 2.7316  27532.3  166.543
 2.9296  26418.2  163.312
 3.1276  25533.1  160.083
 3.3256  25035.8  158.182
 3.5236  26504.8  162.557
 3.7216  24340.4  157.034
 3.9196  23717.7  154.235
 4.1176  23433.6  153.071
 4.3156  24685.5  157.262
 4.5136  27103.3  163.765
 4.7116  27939.6  167.418
 4.9096  27507.1  165.547
 5.1076  26980.4  164.537
 5.3056  27450.7  165.69
 5.5036  27232.7  164.923
 5.7016  27456.7  165.57
 5.8996  28267.8  167.207
 6.0976  28783  170.17
 6.2956  29373.1  171.236
 6.4936  30317.5  173.141
 6.6916  30298.6  174.1
 6.8896  31347.4  176.943
 7.0876  32392  180.603
 7.2856  32209.4  179.144
 7.4836  32721  179.885
 7.6816  33358.5  182.166
 7.8796  35035.4  186.679
 8.0776  36294.9  191.002
 8.2756  38359.1  194.94
 8.4736  38882.1  196.068
 8.6716  38103.6  194.748
 8.8696  37861.9  194.594
 9.0676  36977.6  191.668
 9.2656  35975.1  189.736
 9.4636  35616.1  187.185
 9.6616  34765.8  185.725
 9.8596  33526.3  181.855
 10.0576  31579.1  177.169
 10.2556  30638.5  174.947
 10.4536  29386.1  170.936
 10.6516  28389.4  168.198
 10.8496  27743  165.68
 11.0476  27026.9  163.561
 11.2456  26340.6  162
 11.4436  26015.9  160.175
 11.6416  27753.3  165.812
 11.8396  25325.9  158.599
 12.0376  24980.4  157.145
 12.2356  24592.2  156.33
 12.4336  24766.7  156.421
 12.6316  24093.3  154.548
 12.8296  24546.5  155.631
 13.0276  25088.7  157.523
 13.2256  25409.2  158.896
 13.4236  25119.5  157.756
 13.6216  24896.9  157.068
 13.8196  24990.8  157.132
 14.0176  24677.8  156.435
 14.2156  24108.3  153.653
 14.4136  22806.9  150.832
 14.6116  22619.2  149.408
 14.8096  21945.1  147.143
 15.0076  20752.8  146.946
 15.2056  20372.8  141.377
 15.4036  19437.6  138.927
 15.6016  19003.3  136.444
 15.7996  18669.9  135.521
 15.9976  17839.7  135.46
 16.1956  17258.6  131.08
 16.3936  16778  128.415
 16.5916  16506.6  128.008
 16.7896  16609.3  128.464
 16.9876  16543  129.693
 17.1856  16456  127.697
 17.3836  15990.6  125.779
 17.5816  15282.6  123.45
 17.7796  15139.3  122.798
 17.9776  14833.5  122.338
 18.1756  14920.1  121.405
 18.3736  14576.9  120.506
 18.5716  14468.3  119.806
 18.7696  14543.9  119.686
 18.9676  14215  118.133
 19.1656  14152.4  118.414
 19.3636  14126.6  118.529
 19.5616  13987.6  118.109
 19.7596  14133.1  118.132
 19.9576  14185.9  118.399
 20.1556  15083.4  122.632
 20.3536  14490.9  119.558
 20.5516  13887.4  117.498
 20.7496  13460.7  115.617
 20.9476  13424.6  115.204
 21.1456  13505  115.893
 21.3436  13244.8  114.718
 21.5416  13140.2  114.265
 21.7396  12930.5  113.192
 21.9376  13002.4  113.269
 22.1356  12969.9  113.256
 22.3336  13011.5  113.739
 22.5316  12751.1  112.677
 22.7296  12964.9  112.979
 22.9276  12924.5  113.482
 23.1256  13021.9  113.375
 23.3236  13019.8  113.923
 23.5216  12811.5  112.67
 23.7196  12697.4  112.118
 23.9176  12533.1  111.134
 24.1156  12426.3  111.141
 24.3136  11990.5  109.977
 24.5116  12088.6  109.948
 24.7096  11683.1  107.906
 24.9076  11571.6  107.41
 25.1056  11252.2  106.384
 25.3036  11215.5  105.718
 25.5016  11299.1  106.145
 25.6996  11254.8  105.515
 25.8976  11093.3  105.19
 26.0956  11091.6  105.202
 26.2936  11054.5  104.671
 26.4916  11247.7  105.463
 26.6896  10954.1  104.375
 26.8876  10825.9  103.616
 27.0856  10720.4  103.152
 27.2836  10567.6  102.317
 27.4816  10445.1  101.645
 27.6796  10405.5  101.84
 27.8776  10288.4  101.124
 28.0756  10246.7  101.199
 28.2736  10185.8  100.484
 28.4716  10116.9  100.192
 28.6696  10114.3  100.028
 28.8676  9951.76  99.5678
 29.0656  9859.62  99.083
 29.2636  9789.77  98.5264
 29.4616  9756.37  98.5407
 29.6596  9920.34  98.9256
 29.8576  9688.12  98.4513
 30.0556  9677.22  98.2689
 30.2536  9703.43  98.1972
 30.4516  9455.66  96.5873
 30.6496  9531.95  96.7045
 30.8476  9523.26  97.1026
 31.0456  9625.86  97.5849
 31.2436  9498.79  96.1986
 31.4416  9382.2  95.793
 31.6396  9414.6  96.0081
 31.8376  9293.49  94.9317
 32.0356  9133.45  94.6794
 32.2336  9183.88  94.3207
 32.4316  9218.42  94.9073
 32.6296  9166.58  94.4784
 32.8276  9208.86  94.4657
 33.0256  9086.73  93.9136
 33.2236  8996.15  93.5878
 33.4216  9099.91  93.8051
 33.6196  9040.38  93.8077
 33.8176  8950.29  93.498
 34.0156  8957.51  93.1507
 34.2136  8894.71  92.8643
 34.4116  8850.89  92.7915
 34.6096  8683.23  91.7857
 34.8076  8645.31  91.9838
 35.0056  8644.05  91.6717
 35.2036  8744.02  92.4095
 35.4016  8703.2  92.1194
 35.5996  8571.21  91.4536
 35.7976  8461.09  91.1335
 35.9956  8694.08  92.027
 36.1936  8525.44  90.9995
 36.3916  8413.19  90.5752
 36.5896  8392.73  91.4422
 36.7876  8425.7  91.0221
 36.9856  8364.76  90.7188
 37.1836  8386.03  89.9278
 37.3816  8375.73  90.2402
 37.5796  8152.39  90.7529
 37.7776  8104.02  88.8535
 37.9756  8212.02  89.328
 38.1736  8189.96  89.4063
 38.3716  8202.59  89.7516
 38.5696  8216.78  90.217
 38.7676  8060.74  88.8523
 38.9656  8010.15  88.2124
 39.1636  7987.89  88.3502
 39.3616  7929.47  87.9612
 39.5596  8055.26  89.5
 39.7576  7980.89  88.468
 39.9556  8024.53  88.347
 40.1536  8127.16  89.1103
 40.3516  8166.93  89.3448
 40.5496  8032.11  88.8641
 40.7476  8192.13  89.753
 40.9456  8127.96  89.1439
 41.1436  8140.12  88.9296
 41.3416  8080.53  88.9424
 41.5396  7927.87  87.9089
 41.7376  8020.18  88.6822
 41.9356  7951.68  88.1614
 42.1336  7972.39  88.4227
 42.3316  7906.36  88.2542
 42.5296  7958.64  88.0598
 42.7276  7989.06  88.4712
 42.9256  7920.35  87.9571
 43.1236  7857.8  87.7192
 43.3216  7860.13  87.4766
 43.5196  7738.85  86.8669
 43.7176  7776.45  87.4745
 43.9156  7627.36  86.5441
 44.1136  7714.18  86.583
 44.3116  7779.56  86.9623
 44.5096  7682.47  86.729
 44.7076  7588.36  86.127
 44.9056  7773.97  87.0383
 45.1036  7472.69  84.963
 45.3016  7546.74  85.8847
 45.4996  7603.61  86.1459
 45.6976  7292.71  84.5407
 45.8956  7427.78  85.1438
 46.0936  7433.24  85.1781
 46.2916  7314.94  84.4661
 46.4896  7369.91  84.8235
 46.6876  7303  85.148
 46.8856  7317.96  84.4891
 47.0836  7262.32  84.4206
 47.2816  7172.98  83.7789
 47.4796  7229.94  84.2113
 47.6776  7024.98  83.9408
 47.8756  7156.31  83.9088
 48.0736  7217.84  84.7227
 48.2716  6918.14  82.7639
 48.4696  7195.07  83.985
 48.6676  7117.06  84.1244
 48.8656  7128.36  83.9203
 49.0636  7111.32  83.7723
 49.2616  6922.95  82.6825
 49.4596  6945.38  82.383
 49.6576  6923.76  82.4739
 49.8556  6955.56  82.6899
 50.0536  6860.71  82.5696
 50.2516  6941.1  83.1835
 50.4496  6846.5  82.2726
 50.6476  6887.66  82.2024
 50.8456  6819.11  81.8786
 51.0436  6688.28  81.5287
 51.2416  6728.44  81.4368
 51.4396  6572.13  80.8889
 51.6376  6605.55  80.9235
 51.8356  6604.01  80.5468
 52.0336  6555.46  80.7513
 52.2316  6594.26  81.3358
 52.4296  6636.01  81.2854
 52.6276  6526.18  80.7259
 52.8256  6666.27  81.1435
 53.0236  6445.08  80.4302
 53.2216  6511.67  80.8761
 53.4196  6413.59  80.1881
 53.6176  6368.86  80.3868
 53.8156  6364.87  80.0282
 54.0136  6432.81  80.6322
 54.2116  6424.01  80.24
 54.4096  6383.32  80.0293
 54.6076  6306.11  79.8964
 54.8056  6292.48  79.5987
 55.0036  6291.24  79.9854
 55.2016  6311.55  79.6543
 55.3996  6333.42  79.7651
 55.5976  6351.43  80.0631
 55.7956  6336.46  79.7896
 55.9936  6183.01  78.9487
 56.1916  6325.7  79.8709
 56.3896  6310.91  79.7665
 56.5876  6198.03  79.6026
 56.7856  6232.07  79.3019
 56.9836  6146.59  78.5382
 57.1816  6302.48  79.9176
 57.3796  6154.51  78.7729
 57.5776  6266.61  79.4093
 57.7756  6179.08  79.4959
 57.9736  6237.51  79.5403
 58.1716  6234.08  79.7673
 58.3696  6153.48  79.0009
 58.5676  6270.27  79.2097
 58.7656  6213.56  79.5263
 58.9636  6271.91  79.9393
 59.1616  6137.49  79.2065
 59.3596  6451.51  80.4399
 59.5576  6259.08  79.2886
 59.7556  6165.81  79.1182
 59.9536  6254.82  79.5843
 60.1516  6222.67  80.2411
 60.1996  0.0000000E+00  0.0000000E+00