Folder: echemistpy/docs/examples/opeando_xrd/IS17_D/Data/IS17_D (part 18)

File: 17_Da_f00051.xye
# /beamlines/bl04/projects/cycle2025-II/20250340211-lsimonelli/DATA/IS17_D/17_Da_f00051.xye : mythproc.py merge -s 0.006 -l 0.5 -f /beamlines/bl04/inhouse/ff/FlatField/ff_20Nov2024rod8mm60s_17keV.raw -b True -c true -o xye /beamlines/bl04/projects/cycle2025-II/20250340211-lsimonelli/DATA/IS17_D/17_Da_00051.dat
# IsMon = [6774500, 6775973, 6775371]  IsPos = [-1.4999, -2.4884, -3.4988]
# Wave = 0.4962  CalPath /beamlines/bl04/projects/cycle2025-II/20250340211-lsimonelli/DATA/Align/Si_Pos1_25keV_f00001.cal
# Date = 2025-09-24_07:45:56 Dt = 4.8000  Bin = 0.0060  <imon> = 6775281 +/- 605 (Min/Max) 6774500 / 6775973
# icurr 251.1679  mocoIn 1.7132E-05  mocoOut 0.8038  i15 7.09018e+06  imon 6.77528e+06  i7 6.0000  iEMpd_timer 4.8000  iEMpd_1 3.6441E-08  iEMpd_2 7.9037E-08  iEMpd_3 1.6213E-08  iEMpd_4 4.7939E-08  iEMhp_timer 4.8000  iEMhp_1 4.9077E-06  iEMhp_2 -2.5166E-08  iEMhp_3 -2.3887E-08  iEMhp_4 -2.1995E-08
#      9776
 1.7416  71220.3  266.963
 1.9396  46957.4  217.047
 2.1376  33534.6  183.42
 2.3356  29989.3  173.089
 2.5336  28236.3  168.545
 2.7316  26577.3  163.62
 2.9296  25502.7  160.45
 3.1276  24852  157.925
 3.3256  24412.5  156.19
 3.5236  26129.8  161.393
 3.7216  24033.2  156.036
 3.9196  23488.1  153.48
 4.1176  23311.8  152.671
 4.3156  24573.3  156.913
 4.5136  26961.6  163.331
 4.7116  27956.2  167.467
 4.9096  27455  165.388
 5.1076  26900.9  164.294
 5.3056  27315.9  165.281
 5.5036  27065.2  164.417
 5.7016  27422.5  165.467
 5.8996  27968.9  166.317
 6.0976  28573.2  169.547
 6.2956  29091.9  170.412
 6.4936  29929.7  172.042
 6.6916  30392.5  174.367
 6.8896  31311.6  176.839
 7.0876  32345.9  180.477
 7.2856  32198.4  179.11
 7.4836  32638.4  179.656
 7.6816  33700.7  183.102
 7.8796  34757.6  185.942
 8.0776  36429.9  191.355
 8.2756  38121.5  194.338
 8.4736  38895.8  196.105
 8.6716  38262.1  195.142
 8.8696  38043.5  195.081
 9.0676  37329.5  192.59
 9.2656  36420.8  190.932
 9.4636  35863.7  187.862
 9.6616  35194.2  186.878
 9.8596  33760.9  182.485
 10.0576  31917.4  178.106
 10.2556  30749.9  175.249
 10.4536  29710.6  171.871
 10.6516  28600.1  168.818
 10.8496  27928.9  166.244
 11.0476  27268.5  164.287
 11.2456  26494.9  162.474
 11.4436  26417.7  161.406
 11.6416  27647.8  165.497
 11.8396  25176.6  158.13
 12.0376  25263.5  158.036
 12.2356  24624.3  156.43
 12.4336  24547.3  155.73
 12.6316  24393.7  155.509
 12.8296  24432.6  155.269
 13.0276  25260.7  158.063
 13.2256  25388.1  158.824
 13.4236  25273.1  158.235
 13.6216  24986.9  157.355
 13.8196  25066.6  157.37
 14.0176  24586.1  156.146
 14.2156  23956.8  153.168
 14.4136  23051.5  151.637
 14.6116  22849.5  150.166
 14.8096  21998.3  147.328
 15.0076  20796.8  147.116
 15.2056  20405.9  141.49
 15.4036  19447  138.957
 15.6016  19042.3  136.583
 15.7996  18465.5  134.775
 15.9976  17707.4  134.956
 16.1956  17240.5  131.018
 16.3936  16996.7  129.256
 16.5916  16825.9  129.247
 16.7896  16455.5  127.873
 16.9876  16610.9  129.949
 17.1856  16496.1  127.845
 17.3836  15850.3  125.219
 17.5816  15290.6  123.474
 17.7796  15302.1  123.454
 17.9776  14789.6  122.16
 18.1756  14878.4  121.234
 18.3736  14634.1  120.74
 18.5716  14529.8  120.058
 18.7696  14571.7  119.802
 18.9676  14299.8  118.484
 19.1656  14213.1  118.681
 19.3636  14168.2  118.702
 19.5616  14152.5  118.809
 19.7596  14172.9  118.292
 19.9576  14387.6  119.237
 20.1556  15345.6  123.692
 20.3536  14278.7  118.678
 20.5516  13784.1  117.063
 20.7496  13473.2  115.671
 20.9476  13205  114.264
 21.1456  13483.2  115.798
 21.3436  13349.6  115.172
 21.5416  13202.2  114.535
 21.7396  12924.1  113.169
 21.9376  13032.6  113.405
 22.1356  13072.9  113.705
 22.3336  12894.2  113.218
 22.5316  12950.2  113.553
 22.7296  12934.8  112.84
 22.9276  12854  113.171
 23.1256  13081.4  113.636
 23.3236  13210.2  114.768
 23.5216  12694.7  112.162
 23.7196  12681.2  112.042
 23.9176  12617.2  111.518
 24.1156  12402.1  111.039
 24.3136  12102.9  110.484
 24.5116  12104  110.012
 24.7096  11602.7  107.529
 24.9076  11498.9  107.072
 25.1056  11243.2  106.34
 25.3036  11310.6  106.163
 25.5016  11398.4  106.612
 25.6996  11254.7  105.515
 25.8976  11064.2  105.059
 26.0956  11197.2  105.703
 26.2936  11237.3  105.531
 26.4916  11169.1  105.097
 26.6896  10917.6  104.203
 26.8876  10777.2  103.383
 27.0856  10869.8  103.88
 27.2836  10581.3  102.382
 27.4816  10511.3  101.972
 27.6796  10461.3  102.113
 27.8776  10293.8  101.152
 28.0756  10337.5  101.647
 28.2736  10268.2  100.888
 28.4716  9896.97  99.0987
 28.6696  10170.4  100.303
 28.8676  9888.57  99.2536
 29.0656  9754.02  98.5531
 29.2636  9873.28  98.9455
 29.4616  9749.55  98.5052
 29.6596  9855.18  98.5981
 29.8576  9634.73  98.1767
 30.0556  9749.56  98.6373
 30.2536  9741.11  98.3863
 30.4516  9650.37  97.5834
 30.6496  9564.49  96.8743
 30.8476  9698.87  98.0009
 31.0456  9684.27  97.8866
 31.2436  9532.65  96.3798
 31.4416  9460.24  96.1823
 31.6396  9409.17  95.9763
 31.8376  9461.89  95.7796
 32.0356  9292.78  95.4969
 32.2336  9200.64  94.4054
 32.4316  9127.35  94.4357
 32.6296  9136.5  94.3204
 32.8276  9214.8  94.498
 33.0256  9016.76  93.5541
 33.2236  8891.32  93.044
 33.4216  9103.8  93.8371
 33.6196  9121.02  94.2185
 33.8176  8998.23  93.7475
 34.0156  8962.88  93.1777
 34.2136  8828.8  92.5197
 34.4116  8742.35  92.2172
 34.6096  8754.6  92.1608
 34.8076  8579.78  91.6439
 35.0056  8695.56  91.9453
 35.2036  8734.5  92.3674
 35.4016  8719.18  92.2061
 35.5996  8512.86  91.1429
 35.7976  8472.73  91.2097
 35.9956  8624.23  91.6613
 36.1936  8518.72  90.9628
 36.3916  8442.03  90.7296
 36.5896  8398.59  91.4709
 36.7876  8447.94  91.1412
 36.9856  8257.02  90.1333
 37.1836  8432.01  90.1731
 37.3816  8419.13  90.4737
 37.5796  8361.12  91.9032
 37.7776  8131.35  89.0098
 37.9756  8256.29  89.572
 38.1736  8318.23  90.1042
 38.3716  8172.09  89.5897
 38.5696  8231.4  90.2929
 38.7676  7828.66  87.5655
 38.9656  8122.78  88.8259
 39.1636  7987.18  88.3471
 39.3616  8112.07  88.9635
 39.5596  8007.01  89.2393
 39.7576  7997.14  88.5529
 39.9556  8088.19  88.696
 40.1536  8113.4  89.04
 40.3516  8194.9  89.4962
 40.5496  8092.11  89.1922
 40.7476  8185.98  89.7168
 40.9456  8229.15  89.6981
 41.1436  8180.8  89.1529
 41.3416  8071.16  88.8898
 41.5396  7986.24  88.2277
 41.7376  8187.7  89.6019
 41.9356  8040.12  88.6516
 42.1336  8014.74  88.6605
 42.3316  7958.24  88.5444
 42.5296  8066.09  88.652
 42.7276  7966.82  88.3497
 42.9256  7954.75  88.1497
 43.1236  7813.97  87.4755
 43.3216  7906.92  87.7411
 43.5196  7831.67  87.3888
 43.7176  7808.68  87.6529
 43.9156  7690.89  86.9018
 44.1136  7737.24  86.712
 44.3116  7684.13  86.4264
 44.5096  7611.32  86.3259
 44.7076  7753.22  87.0569
 44.9056  7600.24  86.0614
 45.1036  7548.91  85.4
 45.3016  7511.43  85.6864
 45.4996  7443.57  85.2391
 45.6976  7470.94  85.5675
 45.8956  7436.99  85.1919
 46.0936  7581.5  86.0198
 46.2916  7456.82  85.2894
 46.4896  7427.21  85.1528
 46.6876  7289.28  85.0678
 46.8856  7188.66  83.7396
 47.0836  7286.48  84.5591
 47.2816  7174.49  83.7877
 47.4796  7226.05  84.1912
 47.6776  7093.13  84.3425
 47.8756  7242.17  84.407
 48.0736  7231.34  84.7949
 48.2716  7029.83  83.4295
 48.4696  7239.34  84.2572
 48.6676  7039.91  83.6691
 48.8656  7075.87  83.6037
 49.0636  7118.7  83.8076
 49.2616  6934.25  82.7518
 49.4596  6923.71  82.2544
 49.6576  7018.26  83.0358
 49.8556  6906.59  82.3997
 50.0536  6980.37  83.2842
 50.2516  6926.03  83.096
 50.4496  6930.56  82.7756
 50.6476  6843.32  81.935
 50.8456  6888.19  82.2806
 51.0436  6629.19  81.1666
 51.2416  6748.17  81.5639
 51.4396  6602.66  81.0718
 51.6376  6630.32  81.0657
 51.8356  6581.79  80.4039
 52.0336  6635.56  81.2427
 52.2316  6558.14  81.1213
 52.4296  6548.47  80.7562
 52.6276  6606.63  81.2181
 52.8256  6567.92  80.551
 53.0236  6533.74  80.9776
 53.2216  6443.21  80.4473
 53.4196  6389.71  80.038
 53.6176  6427.63  80.7527
 53.8156  6414.66  80.3435
 54.0136  6415.38  80.5278
 54.2116  6412.67  80.1641
 54.4096  6383.73  80.0336
 54.6076  6274.6  79.6962
 54.8056  6281.31  79.5271
 55.0036  6362.41  80.4346
 55.2016  6314.33  79.6737
 55.3996  6274.99  79.3951
 55.5976  6342.6  80.0131
 55.7956  6324.81  79.714
 55.9936  6274.82  79.5365
 56.1916  6390.48  80.2869
 56.3896  6290.22  79.6406
 56.5876  6166.73  79.4046
 56.7856  6235.03  79.3217
 56.9836  6123.61  78.3967
 57.1816  6365.7  80.3178
 57.3796  6184.77  78.9661
 57.5776  6246.71  79.2876
 57.7756  6163.81  79.3983
 57.9736  6194.39  79.262
 58.1716  6121.32  79.0369
 58.3696  6190.24  79.226
 58.5676  6322.21  79.5365
 58.7656  6317.53  80.192
 58.9636  6354.81  80.4651
 59.1616  6248.53  79.9148
 59.3596  6258.18  79.232
 59.5576  6320.87  79.6858
 59.7556  6144.22  78.9863
 59.9536  6443.49  80.7826
 60.1516  6208.27  80.155
 60.1996  0.0000000E+00  0.0000000E+00

File: 17_Da_f00053.xye
# /beamlines/bl04/projects/cycle2025-II/20250340211-lsimonelli/DATA/IS17_D/17_Da_f00053.xye : mythproc.py merge -s 0.006 -l 0.5 -f /beamlines/bl04/inhouse/ff/FlatField/ff_20Nov2024rod8mm60s_17keV.raw -b True -c true -o xye /beamlines/bl04/projects/cycle2025-II/20250340211-lsimonelli/DATA/IS17_D/17_Da_00053.dat
# IsMon = [6792076, 6794451, 6795466]  IsPos = [-1.5000, -2.4885, -3.4988]
# Wave = 0.4962  CalPath /beamlines/bl04/projects/cycle2025-II/20250340211-lsimonelli/DATA/Align/Si_Pos1_25keV_f00001.cal
# Date = 2025-09-24_08:18:56 Dt = 4.8000  Bin = 0.0060  <imon> = 6793998 +/- 1421 (Min/Max) 6792076 / 6795466
# icurr 252.7974  mocoIn 1.7247E-05  mocoOut 0.8095  i15 7.11101e+06  imon 6.794e+06  i7 6.6667  iEMpd_timer 4.8000  iEMpd_1 3.4699E-08  iEMpd_2 7.8632E-08  iEMpd_3 1.7105E-08  iEMpd_4 4.9506E-08  iEMhp_timer 4.8000  iEMhp_1 4.9390E-06  iEMhp_2 -2.5850E-08  iEMhp_3 -2.4912E-08  iEMhp_4 -2.1910E-08
#      9776
 1.7416  71077.3  266.718
 1.9396  47131.9  217.474
 2.1376  33779.7  184.105
 2.3356  29911.2  172.878
 2.5336  28050.1  168.003
 2.7316  26458.7  163.262
 2.9296  25303.3  159.831
 3.1276  24729.4  157.552
 3.3256  24415.9  156.206
 3.5236  26128.7  161.552
 3.7216  23950.8  155.773
 3.9196  23416.8  153.249
 4.1176  23367  152.851
 4.3156  24661.8  157.193
 4.5136  26859.8  163.024
 4.7116  28145.3  168.036
 4.9096  27316.6  164.973
 5.1076  27140.8  165.028
 5.3056  27342.8  165.36
 5.5036  26902.8  164.008
 5.7016  27473.5  165.621
 5.8996  28029.4  166.489
 6.0976  28695.9  169.916
 6.2956  29351.8  171.169
 6.4936  30166.5  172.712
 6.6916  30507.7  174.699
 6.8896  31337.5  176.916
 7.0876  32554.9  180.982
 7.2856  32442.6  179.79
 7.4836  32616.1  179.599
 7.6816  33593.8  182.808
 7.8796  34922.3  186.375
 8.0776  36931.4  192.658
 8.2756  38343.9  194.894
 8.4736  39080.2  196.56
 8.6716  38338.9  195.335
 8.8696  38359.8  195.874
 9.0676  37708.4  193.564
 9.2656  36626.9  191.468
 9.4636  35977.1  188.136
 9.6616  35105.2  186.632
 9.8596  33870  182.79
 10.0576  32030.3  178.427
 10.2556  30914.3  175.733
 10.4536  29619.6  171.616
 10.6516  29097.7  170.294
 10.8496  28174.2  166.975
 11.0476  27585.6  165.192
 11.2456  26723.7  163.172
 11.4436  26816.9  162.624
 11.6416  27728.3  165.734
 11.8396  25395.9  158.82
 12.0376  25214.2  157.86
 12.2356  24835.6  157.13
 12.4336  24704  156.22
 12.6316  24381.2  155.465
 12.8296  24564.7  155.689
 13.0276  25312.3  158.217
 13.2256  25390.4  158.837
 13.4236  25244.4  158.147
 13.6216  25094.4  157.697
 13.8196  25272.6  158.014
 14.0176  24501.3  155.869
 14.2156  23993.2  153.289
 14.4136  23057.3  151.656
 14.6116  22577.7  149.268
 14.8096  22132.8  147.773
 15.0076  20778.8  147.051
 15.2056  20430.4  141.568
 15.4036  19435.7  138.919
 15.6016  19107.5  136.812
 15.7996  18640.4  135.412
 15.9976  17912.1  135.734
 16.1956  17311.8  131.288
 16.3936  17137.4  129.789
 16.5916  16709.7  128.799
 16.7896  16704.6  128.837
 16.9876  16608.7  129.95
 17.1856  16294.8  127.065
 17.3836  16058.9  126.042
 17.5816  15497  124.31
 17.7796  15218.5  123.123
 17.9776  15059  123.263
 18.1756  15036.3  121.865
 18.3736  14783.4  121.354
 18.5716  14544.3  120.115
 18.7696  14626.4  120.026
 18.9676  14429.3  119.02
 19.1656  14344.4  119.224
 19.3636  14175.9  118.732
 19.5616  14074  118.48
 19.7596  14191.2  118.372
 19.9576  14626.8  120.227
 20.1556  15168.8  122.977
 20.3536  14239.3  118.516
 20.5516  13836.8  117.28
 20.7496  13460.9  115.527
 20.9476  13419.5  115.193
 21.1456  13415.3  115.496
 21.3436  13321.5  115.041
 21.5416  13202.1  114.534
 21.7396  13062.6  113.771
 21.9376  13108.6  113.734
 22.1356  12997.4  113.521
 22.3336  13160.6  114.36
 22.5316  12994.3  113.741
 22.7296  12927.2  112.806
 22.9276  12857  113.181
 23.1256  12949.8  113.058
 23.3236  13010.5  113.893
 23.5216  13093  113.908
 23.7196  12712.2  112.407
 23.9176  12675.9  111.78
 24.1156  12498.3  111.463
 24.3136  12036.8  110.19
 24.5116  12144.3  110.202
 24.7096  11851.9  108.683
 24.9076  11561.9  107.369
 25.1056  11506.7  107.296
 25.3036  11271.2  105.976
 25.5016  11448.8  106.847
 25.6996  11333.2  105.88
 25.8976  11214.5  105.764
 26.0956  11274.5  106.066
 26.2936  11239.7  105.543
 26.4916  11360.9  105.986
 26.6896  10767.1  103.482
 26.8876  10840.3  103.683
 27.0856  10752.9  103.269
 27.2836  10569  102.321
 27.4816  10620.8  102.501
 27.6796  10468.4  102.141
 27.8776  10435.7  101.848
 28.0756  10385.6  101.886
 28.2736  10338  101.234
 28.4716  10125.5  100.238
 28.6696  10162.6  100.267
 28.8676  10082.7  100.22
 29.0656  9951.69  99.546
 29.2636  9874.88  98.8689
 29.4616  9845.27  98.9834
 29.6596  9889.91  98.7686
 29.8576  9680.63  98.4081
 30.0556  9812.26  98.9439
 30.2536  9904.48  99.2032
 30.4516  9665.37  97.6584
 30.6496  9744.85  97.7831
 30.8476  9652.14  97.7639
 31.0456  9503.68  96.9705
 31.2436  9601.22  96.726
 31.4416  9412.22  95.9504
 31.6396  9489.82  96.3899
 31.8376  9388.91  95.4159
 32.0356  9444.05  96.2758
 32.2336  9221.68  94.5201
 32.4316  9271.38  95.1783
 32.6296  9292.07  95.0529
 32.8276  9223.54  94.5399
 33.0256  9108.73  94.0317
 33.2236  9027.29  93.753
 33.4216  9198.08  94.3204
 33.6196  9098.63  94.1065
 33.8176  9020.56  93.8709
 34.0156  8954.27  93.1313
 34.2136  8979.32  93.3067
 34.4116  8766.62  92.3456
 34.6096  8735.18  92.0604
 34.8076  8647.89  91.9979
 35.0056  8721.48  92.0862
 35.2036  8756.37  92.4869
 35.4016  8715.96  92.1882
 35.5996  8722.18  92.259
 35.7976  8473.04  91.2022
 35.9956  8606.36  91.5657
 36.1936  8407.7  90.3704
 36.3916  8455.85  90.8054
 36.5896  8405.88  91.9783
 36.7876  8438.66  91.0879
 36.9856  8385.26  90.8275
 37.1836  8358.9  89.7779
 37.3816  8375.89  90.2338
 37.5796  8362.77  91.908
 37.7776  8115.3  88.9202
 37.9756  8284.22  89.7252
 38.1736  8372.83  90.3974
 38.3716  8196.16  89.7203
 38.5696  8104.71  89.5965
 38.7676  7901.02  87.9726
 38.9656  8097.86  88.6941
 39.1636  8077.41  88.818
 39.3616  8120.52  89.016
 39.5596  7935.7  88.8382
 39.7576  8026.35  88.7215
 39.9556  8123.84  88.8904
 40.1536  8137.67  89.1695
 40.3516  8185.39  89.4497
 40.5496  8125.74  89.1676
 40.7476  8246.77  90.049
 40.9456  8196.34  89.5117
 41.1436  8256.33  89.5645
 41.3416  8089.59  88.9901
 41.5396  7958.21  88.0724
 41.7376  8209.1  89.7117
 41.9356  8123.57  89.1102
 42.1336  8069.03  88.9625
 42.3316  7953.81  88.5192
 42.5296  7992.08  88.2456
 42.7276  8073.8  88.9404
 42.9256  8003.62  88.4208
 43.1236  7858.95  87.7249
 43.3216  7904.72  87.8374
 43.5196  7856.36  87.5288
 43.7176  7856.63  87.9194
 43.9156  7754.06  87.2528
 44.1136  7840.14  87.2831
 44.3116  7813.19  87.1458
 44.5096  7599.47  86.2552
 44.7076  7708.83  86.8039
 44.9056  7638.58  86.2813
 45.1036  7592.71  85.6466
 45.3016  7583.35  86.0956
 45.4996  7439.87  85.2173
 45.6976  7397  85.1429
 45.8956  7566.27  85.9322
 46.0936  7573.95  85.7344
 46.2916  7508.82  85.5904
 46.4896  7480.7  85.4606
 46.6876  7469.26  86.1197
 46.8856  7315.05  84.4613
 47.0836  7326.4  84.7883
 47.2816  7178.16  83.805
 47.4796  7370.98  85.0299
 47.6776  7086.17  84.3105
 47.8756  7236.9  84.3769
 48.0736  7210.77  84.685
 48.2716  7065.14  83.64
 48.4696  7106.67  83.4593
 48.6676  7119.56  84.1415
 48.8656  7208.49  84.3965
 49.0636  7158.32  84.0491
 49.2616  6957.16  82.8911
 49.4596  7034.03  82.9108
 49.6576  6961.32  82.7095
 49.8556  6992.83  82.9126
 50.0536  6948.01  83.083
 50.2516  6920.43  83.0329
 50.4496  6836.66  82.212
 50.6476  6971.93  82.7041
 50.8456  6997.73  82.939
 51.0436  6769.99  82.0207
 51.2416  6719.41  81.3887
 51.4396  6591.36  81.0059
 51.6376  6725.21  81.6419
 51.8356  6745.84  81.3995
 52.0336  6564.27  80.8078
 52.2316  6567.9  81.1815
 52.4296  6662.66  81.4478
 52.6276  6625.33  81.3305
 52.8256  6696.08  81.3145
 53.0236  6466.79  80.5654
 53.2216  6474.25  80.6217
 53.4196  6338.29  79.7173
 53.6176  6472.65  81.0402
 53.8156  6353.24  79.9638
 54.0136  6465.07  80.8358
 54.2116  6415.23  80.1833
 54.4096  6467.65  80.5504
 54.6076  6377.43  80.348
 54.8056  6342.68  79.9162
 55.0036  6394.4  80.5106
 55.2016  6299.61  79.5061
 55.3996  6359.85  79.9296
 55.5976  6362.91  80.138
 55.7956  6390.62  80.1282
 55.9936  6308.41  79.75
 56.1916  6274.92  79.545
 56.3896  6286.36  79.6137
 56.5876  6228.23  79.798
 56.7856  6263.07  79.499
 56.9836  6200.97  78.8907
 57.1816  6268.75  79.7046
 57.3796  6271.45  79.5165
 57.5776  6246.17  79.2777
 57.7756  6120.87  79.1207
 57.9736  6250.19  79.6242
 58.1716  6236.56  79.7764
 58.3696  6172.95  79.1193
 58.5676  6270.86  79.2134
 58.7656  6217.93  79.5559
 58.9636  6327.19  80.2867
 59.1616  6331.56  80.4445
 59.3596  6329.07  79.6701
 59.5576  6586.31  81.3335
 59.7556  6248.32  79.6446
 59.9536  6430.33  80.6919
 60.1516  6337.43  80.9763
 60.1996  0.0000000E+00  0.0000000E+00