Folder: echemistpy/docs/examples/opeando_xrd/IS17_D/Data/IS17_D (part 97)

File: 17_Db_f00095.xye
# /beamlines/bl04/projects/cycle2025-II/20250340211-lsimonelli/DATA/IS17_D/17_Db_f00095.xye : mythproc.py merge -s 0.006 -l 0.5 -f /beamlines/bl04/inhouse/ff/FlatField/ff_20Nov2024rod8mm60s_17keV.raw -b True -c true -o xye /beamlines/bl04/projects/cycle2025-II/20250340211-lsimonelli/DATA/IS17_D/17_Db_00095.dat
# IsMon = [6756577, 6760638, 6757796]  IsPos = [-1.4999, -2.4884, -3.4988]
# Wave = 0.4962  CalPath /beamlines/bl04/projects/cycle2025-II/20250340211-lsimonelli/DATA/Align/Si_Pos1_25keV_f00001.cal
# Date = 2025-09-24_20:10:51 Dt = 4.8000  Bin = 0.0060  <imon> = 6758337 +/- 1701 (Min/Max) 6756577 / 6760638
# icurr 250.0354  mocoIn 1.7053E-05  mocoOut 0.8006  i15 7.07793e+06  imon 6.75834e+06  i7 7.0000  iEMpd_timer 4.8000  iEMpd_1 3.4388E-08  iEMpd_2 7.8113E-08  iEMpd_3 1.8299E-08  iEMpd_4 4.7804E-08  iEMhp_timer 4.8000  iEMhp_1 4.8837E-06  iEMhp_2 -2.5960E-08  iEMhp_3 -2.3970E-08  iEMhp_4 -2.0697E-08
#      9776
 1.7416  70640.9  265.894
 1.9396  48577.2  220.785
 2.1376  35712.2  189.296
 2.3356  32033.4  178.904
 2.5336  30004.3  173.755
 2.7316  27334.9  165.937
 2.9296  25996.7  161.98
 3.1276  25612  160.318
 3.3256  24730.4  157.181
 3.5236  26179.5  161.519
 3.7216  24239  156.696
 3.9196  23695.6  154.122
 4.1176  23621  153.675
 4.3156  24423.7  156.436
 4.5136  26789.2  162.8
 4.7116  27760.2  166.875
 4.9096  27376.9  165.139
 5.1076  27037.2  164.706
 5.3056  27061.7  164.506
 5.5036  26836.2  163.716
 5.7016  27300.8  165.088
 5.8996  27770  165.737
 6.0976  28527.2  169.393
 6.2956  28728.8  169.329
 6.4936  29311.4  170.231
 6.6916  29709.5  172.388
 6.8896  30357.1  174.098
 7.0876  31324.9  177.6
 7.2856  31269.8  176.492
 7.4836  31387.5  176.175
 7.6816  32378.9  179.448
 7.8796  32988.5  181.132
 8.0776  34302.8  185.677
 8.2756  35916  188.637
 8.4736  36661.2  190.383
 8.6716  35935.3  189.103
 8.8696  37026.6  192.484
 9.0676  35901.8  188.865
 9.2656  34966.9  187.081
 9.4636  33957.6  182.838
 9.6616  33170.4  181.426
 9.8596  32736.6  179.657
 10.0576  30239.3  173.328
 10.2556  29885.1  172.765
 10.4536  28652.1  168.762
 10.6516  28151.7  167.49
 10.8496  27081.7  163.712
 11.0476  26374.1  161.558
 11.2456  25481.9  159.336
 11.4436  25852.2  159.668
 11.6416  25985.9  160.425
 11.8396  24489.3  155.933
 12.0376  23689.8  153.018
 12.2356  23423.9  152.563
 12.4336  23284.5  151.666
 12.6316  23510.4  152.66
 12.8296  23465.2  152.127
 13.0276  23809.7  153.45
 13.2256  24009.5  154.451
 13.4236  23883.3  153.819
 13.6216  24495.8  155.78
 13.8196  26608.5  161.778
 14.0176  23371.1  152.236
 14.2156  22987.8  150.011
 14.4136  21870.2  147.701
 14.6116  21505  145.66
 14.8096  20900.4  143.588
 15.0076  19871.4  143.862
 15.2056  19087  136.835
 15.4036  18187.1  134.386
 15.6016  17753.5  131.873
 15.7996  17263.8  130.318
 15.9976  17090.4  132.525
 16.1956  16745.6  129.099
 16.3936  16548.5  127.523
 16.5916  16225.9  126.917
 16.7896  16058.6  126.324
 16.9876  15924  127.214
 17.1856  15697.3  124.699
 17.3836  15415.2  123.492
 17.5816  15018.5  122.367
 17.7796  14851.1  121.612
 17.9776  14553.9  121.167
 18.1756  14526.5  119.809
 18.3736  14368  119.621
 18.5716  14277.4  119.003
 18.7696  14146.2  118.023
 18.9676  14064.5  117.496
 19.1656  13640.1  116.281
 19.3636  13596.3  116.279
 19.5616  13577.5  116.374
 19.7596  13838.3  116.889
 19.9576  14181.2  118.362
 20.1556  14223.1  119.071
 20.3536  13442.3  115.144
 20.5516  13142  114.295
 20.7496  13019.2  113.702
 20.9476  12906.7  112.959
 21.1456  12706.4  112.394
 21.3436  12632.5  112.033
 21.5416  12493  111.423
 21.7396  12486.3  111.237
 21.9376  12327.4  110.304
 22.1356  12392.7  110.708
 22.3336  12144.7  109.873
 22.5316  12127.6  109.89
 22.7296  12136.5  109.309
 22.9276  11971.7  109.217
 23.1256  12187.1  109.684
 23.3236  12457.5  111.474
 23.5216  12321.2  110.499
 23.7196  12263.1  110.196
 23.9176  12319.8  110.2
 24.1156  11957  109.004
 24.3136  11645  108.372
 24.5116  11783.6  108.529
 24.7096  11573.4  107.365
 24.9076  11446  106.817
 25.1056  11171.5  105.984
 25.3036  10815.3  103.799
 25.5016  10880.2  104.157
 25.6996  10825.9  103.482
 25.8976  10795.7  103.761
 26.0956  10633.2  103
 26.2936  10808.8  103.502
 26.4916  10980.2  104.167
 26.6896  10595.4  102.632
 26.8876  10614.5  102.585
 27.0856  10313.4  101.187
 27.2836  10156.7  100.305
 27.4816  9997.68  99.4535
 27.6796  10115  100.401
 27.8776  10251  100.929
 28.0756  9822.87  99.0797
 28.2736  9831.93  98.7115
 28.4716  9753.22  98.3718
 28.6696  9699.14  97.9499
 28.8676  9635.11  97.9718
 29.0656  9439.1  96.941
 29.2636  9599.98  97.5563
 29.4616  9192.31  95.6453
 29.6596  9351.39  96.0414
 29.8576  9074.01  95.275
 30.0556  9067.34  95.1256
 30.2536  9294.27  96.0994
 30.4516  9336.93  95.9734
 30.6496  9361.63  95.8363
 30.8476  9272.86  95.8166
 31.0456  9361.33  96.2427
 31.2436  9404.01  95.7227
 31.4416  9128.8  94.4803
 31.6396  9180.98  94.7971
 31.8376  9139.77  94.1004
 32.0356  9228.46  95.1358
 32.2336  9013.52  93.4408
 32.4316  8808.44  92.76
 32.6296  8717.92  92.1177
 32.8276  8794.9  92.3238
 33.0256  8663.85  91.6785
 33.2236  8831.73  92.7257
 33.4216  8647.85  91.4475
 33.6196  8647.45  91.7353
 33.8176  8804.06  92.7362
 34.0156  8540.37  90.9618
 34.2136  8607.28  91.3358
 34.4116  8324.69  89.9879
 34.6096  8388.81  90.2148
 34.8076  8363.36  90.4926
 35.0056  8452.08  90.6325
 35.2036  8666.11  92.0122
 35.4016  8314.21  90.0292
 35.5996  8278.08  89.8673
 35.7976  8205.7  89.739
 35.9956  8269.18  89.745
 36.1936  8372.76  90.1492
 36.3916  8173.93  89.2786
 36.5896  8127.06  89.9984
 36.7876  7963.69  88.4864
 36.9856  7857.95  87.9255
 37.1836  7936.95  87.4799
 37.3816  7849.79  87.3594
 37.5796  8008.87  89.95
 37.7776  8027.74  88.4443
 37.9756  8114.3  88.8049
 38.1736  8145.61  89.1616
 38.3716  7888.39  88.0159
 38.5696  7802.3  87.8891
 38.7676  7673.13  86.6816
 38.9656  7762.39  86.8208
 39.1636  7868.28  87.6844
 39.3616  7832.15  87.4115
 39.5596  7659.99  87.2804
 39.7576  7743.81  87.1438
 39.9556  7644.25  86.2312
 40.1536  7899.34  87.8534
 40.3516  7749.19  87.0227
 40.5496  7821.42  87.6847
 40.7476  7917.73  88.2225
 40.9456  7932.48  88.0645
 41.1436  7880.26  87.4999
 41.3416  7663.5  86.6135
 41.5396  7745.66  86.8877
 41.7376  7736.87  87.0983
 41.9356  7645.53  86.4394
 42.1336  7949.18  88.2718
 42.3316  7650.03  86.8073
 42.5296  7689.25  86.5533
 42.7276  7656.95  86.6053
 42.9256  7703.13  86.7442
 43.1236  7614.36  86.346
 43.3216  7698.86  86.5734
 43.5196  7570.21  85.9061
 43.7176  7586.13  86.3921
 43.9156  7393.94  85.204
 44.1136  7351.13  84.5168
 44.3116  7373.34  84.6591
 44.5096  7413.28  85.1941
 44.7076  7384.04  84.9557
 44.9056  7520.88  85.6193
 45.1036  7492.49  85.0769
 45.3016  7428.26  85.201
 45.4996  7376.87  84.8611
 45.6976  7393.07  85.1273
 45.8956  7346.18  84.6631
 46.0936  7489.36  85.4889
 46.2916  7490.94  85.4734
 46.4896  7508.21  85.5962
 46.6876  7279.97  85.0044
 46.8856  7349.22  84.6612
 47.0836  7322.84  84.7668
 47.2816  7224.52  84.0731
 47.4796  7275.91  84.4821
 47.6776  7229.43  85.1543
 47.8756  7217.4  84.2681
 48.0736  7263.34  84.9882
 48.2716  7185.87  84.3475
 48.4696  7305.99  84.6377
 48.6676  7183.75  84.5149
 48.8656  7226.69  84.4966
 49.0636  7301.95  84.8736
 49.2616  7078.79  83.6072
 49.4596  7221.07  83.9867
 49.6576  7179.75  83.9938
 49.8556  7102.63  83.5609
 50.0536  7265.59  84.9702
 50.2516  7151.3  84.43
 50.4496  7167.58  84.1748
 50.6476  7261.49  84.404
 50.8456  7056.4  83.2861
 51.0436  6904.09  82.8196
 51.2416  6945.14  82.7477
 51.4396  6832.65  82.4762
 51.6376  6814.65  82.184
 51.8356  6916.14  82.4188
 52.0336  6924.78  82.9962
 52.2316  6899.42  83.2106
 52.4296  6807.06  82.348
 52.6276  6778.62  82.2838
 52.8256  6918.26  82.6831
 53.0236  6895.86  83.1731
 53.2216  6895.23  83.2117
 53.4196  6748.75  82.2242
 53.6176  6825.16  83.1983
 53.8156  6740.14  82.3409
 54.0136  6558.33  81.4144
 54.2116  6684.78  81.8155
 54.4096  6467.79  80.5523
 54.6076  6441.15  80.7217
 54.8056  6397.06  80.2303
 55.0036  6403.25  80.6761
 55.2016  6504.48  80.8105
 55.3996  6274.12  79.3565
 55.5976  6244.58  79.3508
 55.7956  6310.84  79.5967
 55.9936  6405.01  80.3132
 56.1916  6281.13  79.5819
 56.3896  6132.18  78.607
 56.5876  6290.01  80.1591
 56.7856  6162.72  78.8533
 56.9836  6246.54  79.145
 57.1816  6333.48  80.0704
 57.3796  6156.42  78.7601
 57.5776  6233.55  79.1488
 57.7756  6076.1  78.8031
 57.9736  6191.42  79.2188
 58.1716  5951.7  77.9299
 58.3696  5779.96  76.5566
 58.5676  5870.51  76.6292
 58.7656  5776.49  76.6804
 58.9636  5840.23  77.1314
 59.1616  5768.77  76.7846
 59.3596  5963.25  77.3463
 59.5576  5822.71  76.4849
 59.7556  5802.05  76.759
 59.9536  5900.99  77.3108
 60.1516  5740.17  77.0776
 60.1996  0.0000000E+00  0.0000000E+00

File: 17_Db_f00096.xye
# /beamlines/bl04/projects/cycle2025-II/20250340211-lsimonelli/DATA/IS17_D/17_Db_f00096.xye : mythproc.py merge -s 0.006 -l 0.5 -f /beamlines/bl04/inhouse/ff/FlatField/ff_20Nov2024rod8mm60s_17keV.raw -b True -c true -o xye /beamlines/bl04/projects/cycle2025-II/20250340211-lsimonelli/DATA/IS17_D/17_Db_00096.dat
# IsMon = [6761741, 6766352, 6766607]  IsPos = [-1.4998, -2.4884, -3.4988]
# Wave = 0.4962  CalPath /beamlines/bl04/projects/cycle2025-II/20250340211-lsimonelli/DATA/Align/Si_Pos1_25keV_f00001.cal
# Date = 2025-09-24_20:27:27 Dt = 4.8000  Bin = 0.0060  <imon> = 6764900 +/- 2236 (Min/Max) 6761741 / 6766607
# icurr 250.7778  mocoIn 1.7108E-05  mocoOut 0.8029  i15 7.08854e+06  imon 6.7649e+06  i7 4.3333  iEMpd_timer 4.8000  iEMpd_1 3.4584E-08  iEMpd_2 7.8765E-08  iEMpd_3 1.7504E-08  iEMpd_4 4.7025E-08  iEMhp_timer 4.8000  iEMhp_1 4.8983E-06  iEMhp_2 -2.5822E-08  iEMhp_3 -2.5168E-08  iEMhp_4 -2.1634E-08
#      9776
 1.7416  70332.5  265.341
 1.9396  48675.3  221.023
 2.1376  35677.2  189.223
 2.3356  31962.9  178.726
 2.5336  29712.2  172.925
 2.7316  27465.2  166.347
 2.9296  26292  162.917
 3.1276  25738.1  160.73
 3.3256  25069.4  158.231
 3.5236  26327.9  162
 3.7216  24257.1  156.749
 3.9196  23672.7  154.057
 4.1176  23632  153.712
 4.3156  24631.9  157.095
 4.5136  26805.9  162.855
 4.7116  27797.7  166.989
 4.9096  27334.3  165.018
 5.1076  27068.6  164.804
 5.3056  27112.2  164.648
 5.5036  27092.9  164.5
 5.7016  27336.1  165.2
 5.8996  27863.1  166.014
 6.0976  28631.2  169.69
 6.2956  28687.1  169.21
 6.4936  29413.3  170.537
 6.6916  29695.6  172.344
 6.8896  30545.9  174.645
 7.0876  31461  177.984
 7.2856  31214.9  176.343
 7.4836  31662.2  176.938
 7.6816  32464.8  179.675
 7.8796  33052.3  181.298
 8.0776  34544  186.319
 8.2756  36046.1  188.961
 8.4736  36638.4  190.316
 8.6716  36144  189.647
 8.8696  37018.6  192.459
 9.0676  35901.9  188.857
 9.2656  34956.7  187.053
 9.4636  34008.4  182.961
 9.6616  33297.6  181.767
 9.8596  32498.7  179.03
 10.0576  30612.8  174.412
 10.2556  29683.4  172.197
 10.4536  28683.7  168.868
 10.6516  28011.4  167.091
 10.8496  26963.5  163.351
 11.0476  26474.1  161.875
 11.2456  25639.3  159.823
 11.4436  25804.4  159.522
 11.6416  26306.4  161.411
 11.8396  24452.6  155.826
 12.0376  23833  153.485
 12.2356  23513.9  152.85
 12.4336  23627.4  152.784
 12.6316  23587.5  152.918
 12.8296  23455.8  152.108
 13.0276  23783.3  153.363
 13.2256  24030.5  154.525
 13.4236  23960.2  154.071
 13.6216  24275.3  155.085
 13.8196  27517.4  164.625
 14.0176  23342.2  152.14
 14.2156  23047.8  150.216
 14.4136  21939.8  147.937
 14.6116  21737.4  146.452
 14.8096  20881.7  143.513
 15.0076  19966  144.204
 15.2056  19062.4  136.737
 15.4036  18201.1  134.429
 15.6016  17786.1  131.992
 15.7996  17385.7  130.768
 15.9976  17050.3  132.37
 16.1956  16718.5  128.994
 16.3936  16477.9  127.254
 16.5916  16295.1  127.186
 16.7896  16142.5  126.653
 16.9876  16085.7  127.868
 17.1856  15662.2  124.573
 17.3836  15489.2  123.796
 17.5816  15112.5  122.759
 17.7796  14859.7  121.653
 17.9776  14550.1  121.147
 18.1756  14594.1  120.087
 18.3736  14348.4  119.547
 18.5716  14009.6  117.882
 18.7696  14167.8  118.112
 18.9676  13994.3  117.199
 19.1656  13705.5  116.551
 19.3636  13626  116.406
 19.5616  13672.9  116.779
 19.7596  13776.5  116.748
 19.9576  14098.9  118.09
 20.1556  14397.2  119.792
 20.3536  13543  115.574
 20.5516  13233.6  114.696
 20.7496  12910.3  113.225
 20.9476  12927.1  113.055
 21.1456  12781.8  112.729
 21.3436  12735.8  112.486
 21.5416  12683.6  112.271
 21.7396  12532.9  111.445
 21.9376  12413.7  110.684
 22.1356  12464.6  111.03
 22.3336  12170.9  109.988
 22.5316  12263.1  110.492
 22.7296  12226.1  109.702
 22.9276  12189.2  110.199
 23.1256  12317.6  110.258
 23.3236  12445  111.415
 23.5216  12284.3  110.333
 23.7196  12340.5  110.538
 23.9176  12346.8  110.327
 24.1156  12149.9  109.891
 24.3136  11786.9  109.031
 24.5116  11982.1  109.45
 24.7096  11604.5  107.532
 24.9076  11384.9  106.329
 25.1056  11132.3  105.843
 25.3036  10842  103.934
 25.5016  10880  104.154
 25.6996  10917  103.922
 25.8976  10816.8  103.871
 26.0956  10641.7  103.027
 26.2936  10810.3  103.51
 26.4916  10980.9  104.178
 26.6896  10641.4  102.864
 26.8876  10542.2  102.243
 27.0856  10426.3  101.735
 27.2836  10246  100.734
 27.4816  10079.9  99.867
 27.6796  10007.1  99.8558
 27.8776  10341.7  101.37
 28.0756  9867.84  99.3017
 28.2736  9895.48  99.0295
 28.4716  9714.54  98.1723
 28.6696  9689.01  97.8932
 28.8676  9631.79  97.9567
 29.0656  9526.07  97.3913
 29.2636  9568.47  97.3953
 29.4616  9296.4  96.1804
 29.6596  9246.08  95.4933
 29.8576  9169.81  95.7716
 30.0556  9146.91  95.5268
 30.2536  9287.6  96.0526
 30.4516  9385.22  96.2118
 30.6496  9281.66  95.4214
 30.8476  9288.93  95.9005
 31.0456  9181.32  95.4877
 31.2436  9398.76  95.7005
 31.4416  9271.18  95.229
 31.6396  9158  94.6884
 31.8376  9208.41  94.4755
 32.0356  8998.54  93.9632
 32.2336  9105.93  93.9284
 32.4316  8840.52  92.9346
 32.6296  8771.3  92.4107
 32.8276  8773.01  92.2116
 33.0256  8727.14  92.0177
 33.2236  8838.34  92.7629
 33.4216  8722.14  91.8454
 33.6196  8706.94  92.048
 33.8176  8633.39  91.826
 34.0156  8539.87  90.9587
 34.2136  8709.58  91.8865
 34.4116  8352.52  90.1373
 34.6096  8470.13  90.6527
 34.8076  8434.81  90.8782
 35.0056  8347.34  90.0793
 35.2036  8590.19  91.6039
 35.4016  8339.61  90.1656
 35.5996  8240.81  89.6651
 35.7976  8271.09  90.1015
 35.9956  8444.04  90.6876
 36.1936  8388.82  90.241
 36.3916  8201.62  89.4336
 36.5896  8199.36  90.3975
 36.7876  7955.42  88.4327
 36.9856  7838.45  87.8087
 37.1836  7926.81  87.4193
 37.3816  7824.58  87.2134
 37.5796  7929.97  89.5078
 37.7776  8125.74  88.9856
 37.9756  8032.81  88.3596
 38.1736  8028.24  88.5198
 38.3716  7993.84  88.6004
 38.5696  7869.92  88.2736
 38.7676  7831.72  87.5862
 38.9656  7875.93  87.4605
 39.1636  7898.36  87.8684
 39.3616  7774.98  87.0985
 39.5596  7713.92  87.5853
 39.7576  7769.65  87.2939
 39.9556  7739.9  86.7699
 40.1536  7871.56  87.6904
 40.3516  7929.18  88.0249
 40.5496  7802.38  87.5702
 40.7476  7902.03  88.1369
 40.9456  7845.86  87.5841
 41.1436  7935.12  87.7999
 41.3416  7746.41  87.0765
 41.5396  7843.97  87.4339
 41.7376  7749.5  87.1691
 41.9356  7746.45  86.9972
 42.1336  7859.24  87.7871
 42.3316  7596.54  86.4999
 42.5296  7728.89  86.7765
 42.7276  7798.46  87.4068
 42.9256  7757.78  87.0468
 43.1236  7657.94  86.5874
 43.3216  7724.27  86.7167
 43.5196  7690.71  86.5929
 43.7176  7544.59  86.1489
 43.9156  7424.71  85.3781
 44.1136  7447.74  85.0659
 44.3116  7502.04  85.3898
 44.5096  7379.88  84.9977
 44.7076  7375.57  84.9007
 44.9056  7579.61  85.9456
 45.1036  7548.38  85.3935
 45.3016  7465.85  85.4214
 45.4996  7482.52  85.4623
 45.6976  7270.93  84.4152
 45.8956  7432.34  85.1673
 46.0936  7554.75  85.8711
 46.2916  7499.61  85.5185
 46.4896  7430.59  85.1581
 46.6876  7443.38  85.9589
 46.8856  7350.05  84.653
 47.0836  7373.51  85.0641
 47.2816  7266.05  84.3165
 47.4796  7442.37  85.4407
 47.6776  7153.7  84.7073
 47.8756  7285.41  84.6629
 48.0736  7287.25  85.1308
 48.2716  7174.15  84.2757
 48.4696  7390.05  85.1227
 48.6676  7328.41  85.3719
 48.8656  7279.18  84.8013
 49.0636  7289.29  84.8027
 49.2616  7194.8  84.2881
 49.4596  7247.56  84.1484
 49.6576  7198.87  84.1061
 49.8556  7191.42  84.082
 50.0536  7167.82  84.3808
 50.2516  7245.77  84.9844
 50.4496  7139.92  84.0106
 50.6476  7245.56  84.3098
 50.8456  7107.11  83.5708
 51.0436  6912.2  82.8706
 51.2416  6865.41  82.2654
 51.4396  6878.54  82.747
 51.6376  6905.41  82.7302
 51.8356  6935.64  82.5257
 52.0336  6838.26  82.4691
 52.2316  6928.44  83.3785
 52.4296  6797.25  82.2817
 52.6276  6715.8  81.8974
 52.8256  6889.94  82.5109
 53.0236  6964.47  83.6056
 53.2216  6896.45  83.2311
 53.4196  6802.2  82.567
 53.6176  6852.56  83.3795
 53.8156  6867.2  83.1287
 54.0136  6494.01  81.0075
 54.2116  6687.81  81.8403
 54.4096  6478.49  80.6229
 54.6076  6527.85  81.2627
 54.8056  6385.32  80.1538
 55.0036  6426.49  80.8104
 55.2016  6585.8  81.3203
 55.3996  6244.76  79.1704
 55.5976  6400.92  80.3666
 55.7956  6363.73  79.9338
 55.9936  6437.49  80.5406
 56.1916  6260.69  79.4492
 56.3896  6173.41  78.8795
 56.5876  6202.83  79.5993
 56.7856  6272.5  79.5478
 56.9836  6182.29  78.7
 57.1816  6325.16  80.0228
 57.3796  6180.48  78.9217
 57.5776  6183.15  78.8392
 57.7756  6081.14  78.8487
 57.9736  6055.39  78.341
 58.1716  5972.43  78.0627
 58.3696  5899.48  77.3421
 58.5676  5897.46  76.8048
 58.7656  5910.28  77.56
 58.9636  5886.86  77.4331
 59.1616  5854.39  77.3512
 59.3596  5828.77  76.4561
 59.5576  6034.74  77.852
 59.7556  5830.64  76.9351
 59.9536  5801.31  76.6423
 60.1516  5761.45  77.2075
 60.1996  0.0000000E+00  0.0000000E+00