Folder: echemistpy/docs/examples/opeando_xrd/IS17_D/Data/IS17_D (part 67)

File: 17_Db_f00017.xye
# /beamlines/bl04/projects/cycle2025-II/20250340211-lsimonelli/DATA/IS17_D/17_Db_f00017.xye : mythproc.py merge -s 0.006 -l 0.5 -f /beamlines/bl04/inhouse/ff/FlatField/ff_20Nov2024rod8mm60s_17keV.raw -b True -c true -o xye /beamlines/bl04/projects/cycle2025-II/20250340211-lsimonelli/DATA/IS17_D/17_Db_00017.dat
# IsMon = [6757553, 6758036, 6760950]  IsPos = [-1.5000, -2.4885, -3.4986]
# Wave = 0.4962  CalPath /beamlines/bl04/projects/cycle2025-II/20250340211-lsimonelli/DATA/Align/Si_Pos1_25keV_f00001.cal
# Date = 2025-09-23_22:27:06 Dt = 4.8000  Bin = 0.0060  <imon> = 6758846 +/- 1501 (Min/Max) 6757553 / 6760950
# icurr 250.8206  mocoIn 1.7105E-05  mocoOut 0.8028  i15 7.07642e+06  imon 6.75885e+06  i7 4.0000  iEMpd_timer 4.8000  iEMpd_1 3.4661E-08  iEMpd_2 7.8082E-08  iEMpd_3 1.7873E-08  iEMpd_4 4.8186E-08  iEMhp_timer 4.8000  iEMhp_1 4.9006E-06  iEMhp_2 -2.4162E-08  iEMhp_3 -2.0326E-08  iEMhp_4 -2.0415E-08
#      9776
 1.7416  68340.9  261.521
 1.9396  46675.2  216.406
 2.1376  33741.8  183.993
 2.3356  29780.3  172.492
 2.5336  30735.1  175.852
 2.7316  25781.9  161.17
 2.9296  24703.7  157.914
 3.1276  24073.4  155.43
 3.3256  23321.4  152.657
 3.5236  25132.5  158.431
 3.7216  22681.4  151.578
 3.9196  22631.5  150.63
 4.1176  22405.1  149.669
 4.3156  23246  152.61
 4.5136  26343  161.448
 4.7116  27088.8  164.844
 4.9096  26125.6  161.327
 5.1076  25862.4  161.085
 5.3056  25729.5  160.289
 5.5036  25133.3  158.451
 5.7016  25628.1  159.956
 5.8996  26254  161.15
 6.0976  26915.9  164.538
 6.2956  27238.2  164.888
 6.4936  28011.4  166.429
 6.6916  28227.3  168.023
 6.8896  29490.8  171.598
 7.0876  30272.7  174.502
 7.2856  29804.9  172.304
 7.4836  30374.8  173.306
 7.6816  31079.8  175.822
 7.8796  32108.6  178.705
 8.0776  35955.6  190.103
 8.2756  35691.7  188.028
 8.4736  35598.2  187.603
 8.6716  35092.1  186.887
 8.8696  36721.4  191.669
 9.0676  35779  188.527
 9.2656  33974.3  184.387
 9.4636  32652.2  179.263
 9.6616  31970.9  178.092
 9.8596  31237.1  175.516
 10.0576  29507.3  171.243
 10.2556  28696.7  169.314
 10.4536  32546.6  179.89
 10.6516  33960  183.983
 10.8496  25998.8  160.4
 11.0476  25929.9  160.161
 11.2456  28846.8  169.537
 11.4436  25159.7  157.519
 11.6416  24580.2  156.03
 11.8396  23675  153.32
 12.0376  23008  150.782
 12.2356  24537  156.186
 12.4336  23732.7  153.118
 12.6316  22559.1  149.535
 12.8296  23068.1  150.841
 13.0276  23000.2  150.823
 13.2256  23068.3  151.398
 13.4236  23266.7  151.826
 13.6216  23502.3  152.596
 13.8196  26450.5  161.324
 14.0176  22706  150.052
 14.2156  22261.8  147.635
 14.4136  20998.8  144.729
 14.6116  20709.2  142.952
 14.8096  19962.2  140.324
 15.0076  19394.1  142.124
 15.2056  18208.4  133.65
 15.4036  17462.8  131.685
 15.6016  17222.4  129.89
 15.7996  16833.8  128.679
 15.9976  16441.3  129.98
 16.1956  16157.7  126.805
 16.3936  15865.4  124.85
 16.5916  15759  125.065
 16.7896  15547.5  124.28
 16.9876  15535.2  125.664
 17.1856  15379.2  123.451
 17.3836  14621  120.28
 17.5816  14406.6  119.86
 17.7796  14655.4  120.822
 17.9776  14507.3  120.963
 18.1756  15552.2  123.964
 18.3736  15594.4  124.63
 18.5716  13726.1  116.692
 18.7696  13808.1  116.611
 18.9676  13660.9  115.79
 19.1656  13234.2  114.535
 19.3636  13248.4  114.79
 19.5616  13286.2  115.116
 19.7596  13365.4  114.88
 19.9576  13908.2  117.225
 20.1556  13100.2  114.28
 20.3536  12905.6  112.82
 20.5516  12653.9  112.153
 20.7496  12506.4  111.345
 20.9476  13055.2  113.612
 21.1456  12923.8  113.355
 21.3436  12376.9  110.888
 21.5416  12185.7  110.045
 21.7396  11918.1  108.675
 21.9376  12107.4  109.31
 22.1356  12434.6  110.929
 22.3336  11978.8  109.108
 22.5316  11879.4  108.762
 22.7296  11852  108.018
 22.9276  11686.6  107.909
 23.1256  12139.2  109.462
 23.3236  12103.4  109.865
 23.5216  12014.5  109.103
 23.7196  11881  108.667
 23.9176  12061.4  109.026
 24.1156  11575.8  107.246
 24.3136  11697.5  108.625
 24.5116  11553.1  107.48
 24.7096  11354.5  106.363
 24.9076  11241.2  105.865
 25.1056  10953.7  104.697
 25.3036  10631  102.922
 25.5016  10685.9  103.221
 25.6996  10714.8  102.951
 25.8976  10869.6  104.12
 26.0956  10700.4  103.32
 26.2936  10520.8  102.116
 26.4916  10734.9  103.007
 26.6896  10431.9  101.844
 26.8876  10284.4  100.979
 27.0856  10172.7  100.456
 27.2836  9926.98  99.3122
 27.4816  10125.2  100.082
 27.6796  9886.11  99.243
 27.8776  10355.3  101.429
 28.0756  9805.73  98.9961
 28.2736  9759.83  98.3573
 28.4716  9478.04  96.9724
 28.6696  9608.31  97.4931
 28.8676  9449.04  97.0214
 29.0656  9338.42  96.4272
 29.2636  9374.39  96.3311
 29.4616  9008.67  94.6823
 29.6596  9093.82  94.7103
 29.8576  8909.4  94.4077
 30.0556  9068.59  95.1277
 30.2536  9001.19  94.5711
 30.4516  9140.56  94.9534
 30.6496  9082.17  94.3874
 30.8476  9041.89  94.6055
 31.0456  9121.19  94.992
 31.2436  9113.54  94.2264
 31.4416  8927.64  93.4459
 31.6396  9331.37  95.5804
 31.8376  9066.29  93.7276
 32.0356  9009.43  94.0094
 32.2336  8897.55  92.8428
 32.4316  8636.47  91.8609
 32.6296  8651.24  91.7074
 32.8276  8601.21  91.3057
 33.0256  8509.48  90.87
 33.2236  8616.49  91.5851
 33.4216  8491.81  90.6177
 33.6196  8558.7  91.2611
 33.8176  8390.13  90.5305
 34.0156  8295.65  89.642
 34.2136  8459.05  90.5489
 34.4116  8105.93  88.8013
 34.6096  8337.79  89.9419
 34.8076  8099.02  89.0485
 35.0056  8299.58  89.8237
 35.2036  8327.83  90.1926
 35.4016  8164.92  89.2258
 35.5996  8087.25  88.8206
 35.7976  7996.76  88.5854
 35.9956  8293.81  89.881
 36.1936  8163.2  89.0235
 36.3916  8080.61  88.7687
 36.5896  8189.63  90.8088
 36.7876  7922.34  88.2485
 36.9856  7638.67  86.6895
 37.1836  7809.9  86.7798
 37.3816  7636.54  86.1614
 37.5796  7627.11  87.786
 37.7776  7828.66  87.3375
 37.9756  7897.36  87.6039
 38.1736  8076.04  88.7763
 38.3716  7907.74  88.1025
 38.5696  7744.22  87.5644
 38.7676  7685.49  86.7624
 38.9656  7811.74  87.1038
 39.1636  7712.82  86.7913
 39.3616  7753.51  86.9829
 39.5596  7558.58  86.7006
 39.7576  7550.16  86.0504
 39.9556  7585.31  85.9003
 40.1536  7726.28  86.8853
 40.3516  7604.85  86.2863
 40.5496  7611.75  86.287
 40.7476  7640.28  86.6654
 40.9456  7728.69  86.921
 41.1436  7764.85  86.852
 41.3416  7553.76  85.9902
 41.5396  7594.03  86.0335
 41.7376  7746.84  87.1458
 41.9356  7699.94  86.7478
 42.1336  7729.17  87.0569
 42.3316  7592.3  86.4741
 42.5296  7521.4  85.5975
 42.7276  7682.87  86.7533
 42.9256  7607.1  86.2035
 43.1236  7656.28  86.5826
 43.3216  7631.78  86.2952
 43.5196  7456.98  85.2659
 43.7176  7578.02  86.334
 43.9156  7180.43  83.9663
 44.1136  7220.57  83.7654
 44.3116  7273.89  84.0861
 44.5096  7204.61  83.984
 44.7076  7277.3  84.3412
 44.9056  7464.45  85.2882
 45.1036  7317.85  84.0717
 45.3016  7308.49  84.5105
 45.4996  7337.33  84.6213
 45.6976  7208.9  84.0505
 45.8956  7247.66  84.096
 46.0936  7416.08  84.8349
 46.2916  7231.77  83.9976
 46.4896  7322.79  84.5575
 46.6876  7269.22  84.9532
 46.8856  7138.12  83.5555
 47.0836  7313.78  84.7164
 47.2816  7139.79  83.5861
 47.4796  7193.11  84.0054
 47.6776  7056.13  84.1391
 47.8756  7123.09  83.708
 48.0736  7197.73  84.5855
 48.2716  7027.46  83.4091
 48.4696  7270.5  84.4176
 48.6676  7165.15  84.4102
 48.8656  7152.92  84.0613
 49.0636  7231.25  84.4738
 49.2616  7019.96  83.2644
 49.4596  7116.13  83.3741
 49.6576  7064.61  83.3059
 49.8556  7066.71  83.35
 50.0536  7171.51  84.4094
 50.2516  7030.39  83.6909
 50.4496  7072.94  83.6208
 50.6476  7023.64  83.0037
 50.8456  7015.11  83.0452
 51.0436  6882.3  82.6993
 51.2416  6848.55  82.167
 51.4396  6715.2  81.766
 51.6376  6770.79  81.9252
 51.8356  6823.8  81.8696
 52.0336  6755.88  81.9684
 52.2316  6685.63  81.8894
 52.4296  6678.53  81.5521
 52.6276  6671.01  81.6166
 52.8256  6707.42  81.4026
 53.0236  6813.98  82.6981
 53.2216  6781.69  82.5136
 53.4196  6840.92  82.8082
 53.6176  6714.5  82.5414
 53.8156  6751.16  82.4325
 54.0136  6376.43  80.2617
 54.2116  6629.66  81.4932
 54.4096  6392.95  80.0823
 54.6076  6386.83  80.3737
 54.8056  6311.42  79.6998
 55.0036  6495.48  81.1147
 55.2016  6362.6  79.8373
 55.3996  6175.52  78.7399
 55.5976  6272.58  79.5427
 55.7956  6246.79  79.2031
 55.9936  6369.49  80.0936
 56.1916  6287.94  79.6215
 56.3896  6042.67  78.0245
 56.5876  6108.87  78.9997
 56.7856  6152.61  78.7902
 56.9836  6253.19  79.2064
 57.1816  6264.96  79.6503
 57.3796  6006.82  77.7693
 57.5776  6066.53  78.0673
 57.7756  6012.34  78.398
 57.9736  6050.28  78.3058
 58.1716  5989.32  78.1793
 58.3696  5733.56  76.2565
 58.5676  5846.6  76.4873
 58.7656  5743.07  76.4608
 58.9636  5729.69  76.3975
 59.1616  5820.7  77.1355
 59.3596  5869.64  76.7214
 59.5576  5788.59  76.2455
 59.7556  5698.37  76.0552
 59.9536  5667.71  75.7524
 60.1516  5830.66  77.6675
 60.1996  0.0000000E+00  0.0000000E+00

File: 17_Db_f00018.xye
# /beamlines/bl04/projects/cycle2025-II/20250340211-lsimonelli/DATA/IS17_D/17_Db_f00018.xye : mythproc.py merge -s 0.006 -l 0.5 -f /beamlines/bl04/inhouse/ff/FlatField/ff_20Nov2024rod8mm60s_17keV.raw -b True -c true -o xye /beamlines/bl04/projects/cycle2025-II/20250340211-lsimonelli/DATA/IS17_D/17_Db_00018.dat
# IsMon = [6770849, 6772740, 6770498]  IsPos = [-1.5000, -2.4886, -3.4985]
# Wave = 0.4962  CalPath /beamlines/bl04/projects/cycle2025-II/20250340211-lsimonelli/DATA/Align/Si_Pos1_25keV_f00001.cal
# Date = 2025-09-23_22:43:44 Dt = 4.8000  Bin = 0.0060  <imon> = 6771362 +/- 985 (Min/Max) 6770498 / 6772740
# icurr 251.7406  mocoIn 1.7186E-05  mocoOut 0.8061  i15 7.08873e+06  imon 6.77136e+06  i7 5.3333  iEMpd_timer 4.8000  iEMpd_1 3.6003E-08  iEMpd_2 7.8565E-08  iEMpd_3 1.6642E-08  iEMpd_4 4.6710E-08  iEMhp_timer 4.8000  iEMhp_1 4.9209E-06  iEMhp_2 -2.5602E-08  iEMhp_3 -2.3391E-08  iEMhp_4 -2.0482E-08
#      9776
 1.7416  68882.7  262.54
 1.9396  46890.3  216.887
 2.1376  34272.1  185.423
 2.3356  30649.9  174.982
 2.5336  30696.7  175.732
 2.7316  26208.6  162.483
 2.9296  24719.7  157.95
 3.1276  24407.6  156.499
 3.3256  23542.2  153.366
 3.5236  25146.6  158.455
 3.7216  23087.9  152.924
 3.9196  23015  151.896
 4.1176  22498.4  149.977
 4.3156  23364.7  153.008
 4.5136  26438.1  161.734
 4.7116  27070.8  164.787
 4.9096  26292.3  161.845
 5.1076  25983.3  161.464
 5.3056  25961.5  161.199
 5.5036  25424  159.372
 5.7016  25833.1  160.595
 5.8996  26214.6  161.028
 6.0976  27339.5  165.831
 6.2956  27319.6  165.131
 6.4936  28116.5  166.729
 6.6916  28414  168.585
 6.8896  29504.2  171.634
 7.0876  30584.7  175.404
 7.2856  30085.4  173.12
 7.4836  30754.2  174.383
 7.6816  31410.3  176.74
 7.8796  32134.6  178.79
 8.0776  35597  189.157
 8.2756  35998  188.852
 8.4736  35879.7  188.352
 8.6716  35060.5  186.798
 8.8696  36871.6  192.074
 9.0676  35950.4  188.989
 9.2656  33920.9  184.251
 9.4636  33056.1  180.448
 9.6616  32071.4  178.395
 9.8596  31544.7  176.368
 10.0576  30432.1  173.522
 10.2556  29041.9  170.295
 10.4536  31880  178.02
 10.6516  33152  181.762
 10.8496  26218  161.071
 11.0476  25850.7  159.907
 11.2456  28755.3  169.751
 11.4436  25166.3  157.537
 11.6416  24753.3  156.572
 11.8396  23684.2  153.355
 12.0376  23059  150.96
 12.2356  24521  156.12
 12.4336  23549.9  152.53
 12.6316  22567.7  149.567
 12.8296  23013.8  150.665
 13.0276  23301.8  151.81
 13.2256  23273.9  152.075
 13.4236  23303.1  151.94
 13.6216  23765.9  153.443
 13.8196  26228.8  160.446
 14.0176  22711.2  150.126
 14.2156  22462.4  148.297
 14.4136  21113  145.119
 14.6116  21024.6  144.036
 14.8096  20080.9  140.739
 15.0076  19406.5  142.164
 15.2056  18480.7  134.648
 15.4036  17699.1  132.569
 15.6016  17381.2  130.492
 15.7996  17219.7  129.685
 15.9976  16576.9  130.524
 16.1956  16321  127.439
 16.3936  15795.1  124.592
 16.5916  15733.8  124.972
 16.7896  15692.4  124.865
 16.9876  15697.5  126.299
 17.1856  15508.5  123.829
 17.3836  14979.8  121.734
 17.5816  14548.8  120.439
 17.7796  14715.4  121.056
 17.9776  14549.8  121.146
 18.1756  15362.6  123.121
 18.3736  15370  123.723
 18.5716  13946  117.617
 18.7696  13845.2  116.767
 18.9676  13654.5  115.767
 19.1656  13277  114.897
 19.3636  13360.7  115.316
 19.5616  13288.8  115.128
 19.7596  13494.2  115.432
 19.9576  13836.3  116.919
 20.1556  13187  114.659
 20.3536  13022.6  113.341
 20.5516  12747.3  112.565
 20.7496  12566.8  111.62
 20.9476  12959.4  113.194
 21.1456  12840.3  112.998
 21.3436  12377.9  110.898
 21.5416  12242  110.299
 21.7396  12140.2  109.683
 21.9376  12199.3  109.731
 22.1356  12478.7  111.128
 22.3336  12027.1  109.33
 22.5316  11961.5  109.14
 22.7296  11779.3  107.683
 22.9276  11627.6  107.64
 23.1256  12195.4  109.729
 23.3236  12126.6  109.978
 23.5216  12084.4  109.431
 23.7196  12097.9  109.656
 23.9176  12150.2  109.433
 24.1156  11798.5  108.291
 24.3136  11706.8  108.649
 24.5116  11722.7  108.252
 24.7096  11374.8  106.457
 24.9076  11306.8  106.164
 25.1056  10972.5  104.77
 25.3036  10747.1  103.561
 25.5016  10793.7  103.742
 25.6996  10656  102.664
 25.8976  11044  104.953
 26.0956  10739  103.505
 26.2936  10497.8  102
 26.4916  10774.8  103.2
 26.6896  10459.6  101.975
 26.8876  10241.3  100.76
 27.0856  10270.4  100.926
 27.2836  9977.87  99.5729
 27.4816  10080.1  99.8611
 27.6796  9887.72  99.2618
 27.8776  10383.9  101.581
 28.0756  9815.97  99.052
 28.2736  9817.73  98.6467
 28.4716  9586.82  97.5314
 28.6696  9613.2  97.5087
 28.8676  9468.65  97.1202
 29.0656  9424.2  96.8651
 29.2636  9454.46  96.7444
 29.4616  8967.15  94.4712
 29.6596  9047.7  94.4713
 29.8576  8936.2  94.5533
 30.0556  9157.39  95.5934
 30.2536  8973.01  94.4288
 30.4516  9449.78  96.538
 30.6496  9324.37  95.6381
 30.8476  9052.1  94.6721
 31.0456  9178.12  95.2876
 31.2436  9112.37  94.2195
 31.4416  9026.96  93.955
 31.6396  9435.05  96.0968
 31.8376  9190.25  94.3635
 32.0356  9036.97  94.1477
 32.2336  8841.97  92.5445
 32.4316  8679.15  92.0837
 32.6296  8639.73  91.6452
 32.8276  8584.7  91.2173
 33.0256  8663.83  91.6883
 33.2236  8683.14  91.9436
 33.4216  8535.29  90.8861
 33.6196  8530.97  91.1429
 33.8176  8486.07  91.03
 34.0156  8413.99  90.2829
 34.2136  8437.66  90.4277
 34.4116  8262.11  89.651
 34.6096  8277.49  89.614
 34.8076  8192.69  89.5625
 35.0056  8185.61  89.1937
 35.2036  8492.97  91.0839
 35.4016  8181.42  89.3112
 35.5996  8135.69  89.0975
 35.7976  8072.99  89.0134
 35.9956  8406.22  90.4835
 36.1936  8224.77  89.3679
 36.3916  8082.12  88.7704
 36.5896  8160.59  90.6458
 36.7876  7927.2  88.283
 36.9856  7698.57  87.0269
 37.1836  7746.64  86.4309
 37.3816  7873.87  87.499
 37.5796  7734.18  88.3973
 37.7776  7895.89  87.7099
 37.9756  7880.97  87.5171
 38.1736  8067.04  88.7344
 38.3716  7901  88.0858
 38.5696  7692.57  87.2789
 38.7676  7556.33  86.0218
 38.9656  7730.83  86.6387
 39.1636  7739.26  86.9282
 39.3616  7680.6  86.5635
 39.5596  7574.49  86.7829
 39.7576  7554.58  86.0684
 39.9556  7700.09  86.5469
 40.1536  7826.1  87.4441
 40.3516  7721.69  86.948
 40.5496  7740.71  87.0178
 40.7476  7739.62  87.232
 40.9456  7772.59  87.1719
 41.1436  7858.1  87.3766
 41.3416  7598.8  86.249
 41.5396  7657.32  86.3914
 41.7376  7771.42  87.2883
 41.9356  7583.78  86.0944
 42.1336  7855.96  87.7671
 42.3316  7673.97  86.9442
 42.5296  7594.36  86.0193
 42.7276  7610.99  86.3501
 42.9256  7643.47  86.411
 43.1236  7523.62  85.8214
 43.3216  7582.08  86.0153
 43.5196  7613.51  86.1026
 43.7176  7501.37  85.9027
 43.9156  7326.97  84.8214
 44.1136  7203.83  83.6701
 44.3116  7324.31  84.3748
 44.5096  7279.74  84.4272
 44.7076  7326.23  84.6066
 44.9056  7456.4  85.2491
 45.1036  7401.82  84.5594
 45.3016  7349.44  84.7553
 45.4996  7262.64  84.198
 45.6976  7352.96  84.8978
 45.8956  7244.5  84.0746
 46.0936  7416.87  84.8324
 46.2916  7365.18  84.7524
 46.4896  7355.98  84.735
 46.6876  7308.48  85.1646
 46.8856  7219.24  84.0325
 47.0836  7251.19  84.345
 47.2816  7124.8  83.4928
 47.4796  7236.11  84.2581
 47.6776  7146.72  84.6726
 47.8756  7246.61  84.4326
 48.0736  7243.24  84.8506
 48.2716  7106.7  83.8854
 48.4696  7140.6  83.6631
 48.6676  7171.92  84.4513
 48.8656  7210.68  84.4075
 49.0636  7174.81  84.1411
 49.2616  7065.83  83.5313
 49.4596  7112.03  83.3623
 49.6576  7049.66  83.234
 49.8556  7131.58  83.7288
 50.0536  7104.19  84.012
 50.2516  7063.17  83.8832
 50.4496  7051.46  83.4376
 50.6476  7027.88  83.0198
 50.8456  7070.33  83.3675
 51.0436  6793.84  82.1693
 51.2416  6862.02  82.2548
 51.4396  6741.59  81.9287
 51.6376  6844.29  82.3647
 51.8356  6790.22  81.5773
 52.0336  6785.74  82.1491
 52.2316  6806.6  82.6453
 52.4296  6770.76  82.3192
 52.6276  6661.75  81.5708
 52.8256  6840.27  82.2141
 53.0236  6833.26  82.7992
 53.2216  6722.27  82.3442
 53.4196  6790.83  82.4911
 53.6176  6731.28  82.6219
 53.8156  6767.13  82.5138
 54.0136  6471.59  80.8615
 54.2116  6551.93  81.0017
 54.4096  6393.53  80.0766
 54.6076  6355.99  80.1847
 54.8056  6336.42  79.8541
 55.0036  6410.03  80.5655
 55.2016  6314.85  79.5586
 55.3996  6221.35  79.0401
 55.5976  6221.96  79.2146
 55.7956  6261.2  79.2882
 55.9936  6322.43  79.7977
 56.1916  6235.14  79.2878
 56.3896  6132.21  78.611
 56.5876  6163.32  79.3401
 56.7856  6156.07  78.8145
 56.9836  6191.64  78.8181
 57.1816  6177.6  79.0762
 57.3796  6034.08  77.945
 57.5776  6064.55  78.0748
 57.7756  6007.97  78.3691
 57.9736  6002.92  78.0142
 58.1716  6001.26  78.3468
 58.3696  5729.72  76.2215
 58.5676  5801.6  76.1843
 58.7656  5739.6  76.4391
 58.9636  5701.16  76.2138
 59.1616  5739.29  76.5969
 59.3596  5804.48  76.3115
 59.5576  5633.84  75.2359
 59.7556  5678.22  75.9373
 59.9536  5717.6  76.1018
 60.1516  5828.39  77.6694
 60.1996  0.0000000E+00  0.0000000E+00