Folder: echemistpy/docs/examples/opeando_xrd/IS17_D/Data/IS17_D (part 90)

File: 17_Db_f00079.xye
# /beamlines/bl04/projects/cycle2025-II/20250340211-lsimonelli/DATA/IS17_D/17_Db_f00079.xye : mythproc.py merge -s 0.006 -l 0.5 -f /beamlines/bl04/inhouse/ff/FlatField/ff_20Nov2024rod8mm60s_17keV.raw -b True -c true -o xye /beamlines/bl04/projects/cycle2025-II/20250340211-lsimonelli/DATA/IS17_D/17_Db_00079.dat
# IsMon = [6776528, 6778106, 6782443]  IsPos = [-1.4999, -2.4884, -3.4988]
# Wave = 0.4962  CalPath /beamlines/bl04/projects/cycle2025-II/20250340211-lsimonelli/DATA/Align/Si_Pos1_25keV_f00001.cal
# Date = 2025-09-24_15:42:56 Dt = 4.8000  Bin = 0.0060  <imon> = 6779026 +/- 2501 (Min/Max) 6776528 / 6782443
# icurr 251.8463  mocoIn 1.7183E-05  mocoOut 0.8059  i15 7.09864e+06  imon 6.77903e+06  i7 5.0000  iEMpd_timer 4.8000  iEMpd_1 3.3537E-08  iEMpd_2 7.7866E-08  iEMpd_3 1.5325E-08  iEMpd_4 4.7276E-08  iEMhp_timer 4.8000  iEMhp_1 4.9208E-06  iEMhp_2 -2.5029E-08  iEMhp_3 -2.4646E-08  iEMhp_4 -1.9932E-08
#      9776
 1.7416  69453.7  263.665
 1.9396  47894.2  219.221
 2.1376  34952.9  187.283
 2.3356  31540.1  177.531
 2.5336  30159.7  174.214
 2.7316  26825.4  164.408
 2.9296  25322.3  159.878
 3.1276  25086.3  158.687
 3.3256  24205.8  155.539
 3.5236  25904.7  160.705
 3.7216  23739.1  155.072
 3.9196  23380.9  153.11
 4.1176  23299.2  152.635
 4.3156  24239.5  155.836
 4.5136  26941.5  163.271
 4.7116  27676.1  166.622
 4.9096  27056.7  164.171
 5.1076  26656.1  163.546
 5.3056  26686.3  163.347
 5.5036  26576.1  162.929
 5.7016  26817.1  163.622
 5.8996  27312.5  164.363
 6.0976  28408.1  169.04
 6.2956  28428.2  168.444
 6.4936  29150.4  169.771
 6.6916  29405  171.488
 6.8896  30434.7  174.306
 7.0876  31195.9  177.236
 7.2856  31034.7  175.828
 7.4836  31751.3  177.196
 7.6816  32368.9  179.423
 7.8796  33270.5  181.901
 8.0776  36440.8  191.373
 8.2756  36841.7  191.026
 8.4736  37000.4  191.256
 8.6716  36554.4  190.734
 8.8696  37709.1  194.229
 9.0676  36807.1  191.206
 9.2656  35382.2  188.173
 9.4636  34153.5  183.331
 9.6616  33218.3  181.528
 9.8596  32955  180.296
 10.0576  30995.3  175.51
 10.2556  30127.4  173.495
 10.4536  32989.3  181.128
 10.6516  32843.4  180.944
 10.8496  27488.6  164.93
 11.0476  27119.3  163.829
 11.2456  28661.1  168.995
 11.4436  26697.4  162.263
 11.6416  25907.9  160.186
 11.8396  24705.5  156.637
 12.0376  23956  153.868
 12.2356  25348.4  158.709
 12.4336  24356.2  155.117
 12.6316  23553.3  152.809
 12.8296  23916.7  153.587
 13.0276  24150.9  154.544
 13.2256  23956.1  154.287
 13.4236  24144.8  154.665
 13.6216  24552.2  155.96
 13.8196  27139  163.428
 14.0176  23569.4  152.876
 14.2156  23156.4  150.566
 14.4136  21851.8  147.638
 14.6116  21678.6  146.258
 14.8096  20955.9  143.767
 15.0076  20163  144.91
 15.2056  19232.2  137.349
 15.4036  18344  134.955
 15.6016  17941.4  132.57
 15.7996  17397.4  130.805
 15.9976  17079.5  132.492
 16.1956  16808.1  129.327
 16.3936  16582  127.646
 16.5916  16311.9  127.247
 16.7896  16320.5  127.337
 16.9876  16125.8  128.025
 17.1856  16008.3  125.946
 17.3836  15308.8  123.076
 17.5816  15272.1  123.414
 17.7796  15200.1  123.053
 17.9776  15088  123.37
 18.1756  15614  124.21
 18.3736  15733.6  125.167
 18.5716  14411  119.566
 18.7696  14394  119.057
 18.9676  14290.6  118.428
 19.1656  13888.9  117.329
 19.3636  13789.8  117.114
 19.5616  13934  117.888
 19.7596  13962.5  117.408
 19.9576  14263.4  118.703
 20.1556  13530.4  116.124
 20.3536  13504.5  115.419
 20.5516  13219.5  114.626
 20.7496  12965.2  113.461
 20.9476  13323.7  114.778
 21.1456  13370  115.301
 21.3436  12792.6  112.738
 21.5416  12805.6  112.808
 21.7396  12567  111.597
 21.9376  12561  111.336
 22.1356  12791.6  112.485
 22.3336  12453.9  111.27
 22.5316  12344.9  110.865
 22.7296  12330.7  110.173
 22.9276  12146.1  110.007
 23.1256  12487.3  111.01
 23.3236  12646.7  112.304
 23.5216  12677.5  112.065
 23.7196  12391.9  110.758
 23.9176  12436.4  110.716
 24.1156  12079.2  109.544
 24.3136  11894.4  109.535
 24.5116  12049.9  109.771
 24.7096  11673.4  107.85
 24.9076  11772  108.346
 25.1056  11286.1  106.542
 25.3036  11024.2  104.812
 25.5016  11055.1  104.99
 25.6996  11049.1  104.546
 25.8976  11261.3  105.988
 26.0956  10899.9  104.271
 26.2936  10877.8  103.836
 26.4916  11116.7  104.817
 26.6896  10691.1  103.108
 26.8876  10711.7  103.056
 27.0856  10531.4  102.242
 27.2836  10311  101.063
 27.4816  10414  101.502
 27.6796  10219.4  100.911
 27.8776  10586.6  102.569
 28.0756  10132.2  100.63
 28.2736  10117.3  100.136
 28.4716  9938.58  99.2988
 28.6696  9980.3  99.3571
 28.8676  9833.07  98.9725
 29.0656  9705.17  98.3019
 29.2636  9701.61  98.0846
 29.4616  9269.62  96.0426
 29.6596  9404.02  96.3097
 29.8576  9235.46  96.1163
 30.0556  9318.89  96.4173
 30.2536  9315.36  96.2028
 30.4516  9540.31  97.0164
 30.6496  9598.78  97.0365
 30.8476  9512.41  97.0447
 31.0456  9488.97  96.892
 31.2436  9514.44  96.2806
 31.4416  9302.12  95.3834
 31.6396  9759.34  97.7437
 31.8376  9351.19  95.2064
 32.0356  9349.95  95.7736
 32.2336  9175.14  94.2852
 32.4316  9030.29  93.9305
 32.6296  8853.92  92.841
 32.8276  8864.46  92.6893
 33.0256  8827.49  92.5494
 33.2236  8957.12  93.3755
 33.4216  8795.33  92.2146
 33.6196  8784.75  92.4644
 33.8176  8894.18  93.1902
 34.0156  8638.81  91.4858
 34.2136  8805.8  92.3886
 34.4116  8543.51  91.1631
 34.6096  8659.82  91.6576
 34.8076  8457.27  90.999
 35.0056  8543.52  91.1277
 35.2036  8743.43  92.418
 35.4016  8399.5  90.4927
 35.5996  8362.34  90.327
 35.7976  8357.29  90.5821
 35.9956  8554.43  91.282
 36.1936  8539.39  91.035
 36.3916  8343.02  90.1944
 36.5896  8352.42  91.2418
 36.7876  8060.35  89.0192
 36.9856  7994.88  88.6781
 37.1836  7950.06  87.5497
 37.3816  7972.11  88.0298
 37.5796  8039.49  90.1286
 37.7776  8180.14  89.2774
 37.9756  8278.36  89.6922
 38.1736  8269.05  89.833
 38.3716  8055.14  88.9295
 38.5696  7994.53  88.9711
 38.7676  7976.75  88.3994
 38.9656  7997.27  88.1416
 39.1636  8034.8  88.617
 39.3616  7934.97  88.0015
 39.5596  7836.66  88.2722
 39.7576  7798.48  87.4489
 39.9556  7834.69  87.2927
 40.1536  8019.25  88.5074
 40.3516  8022.19  88.5427
 40.5496  7907.26  88.1603
 40.7476  7904.79  88.1556
 40.9456  8034.89  88.6297
 41.1436  8037.84  88.3687
 41.3416  7840.28  87.606
 41.5396  7822.07  87.3142
 41.7376  7880.69  87.9044
 41.9356  7872.91  87.7031
 42.1336  7994.01  88.5382
 42.3316  7827.43  87.81
 42.5296  7787.6  87.1049
 42.7276  7968.61  88.3546
 42.9256  7800.05  87.2893
 43.1236  7651.47  86.5448
 43.3216  7850.3  87.4197
 43.5196  7745.63  86.8979
 43.7176  7734.39  87.2242
 43.9156  7435.99  85.4444
 44.1136  7443.55  85.0447
 44.3116  7473.76  85.2255
 44.5096  7539.53  85.9143
 44.7076  7445.14  85.3039
 44.9056  7628.84  86.221
 45.1036  7747.97  86.5129
 45.3016  7647.65  86.4547
 45.4996  7583.22  86.0249
 45.6976  7378  85.025
 45.8956  7580.4  86.0162
 46.0936  7789.33  87.2017
 46.2916  7649.03  86.3863
 46.4896  7603.59  86.1569
 46.6876  7512.79  86.3607
 46.8856  7434.44  85.1485
 47.0836  7326.92  84.7925
 47.2816  7296  84.4966
 47.4796  7441.9  85.4347
 47.6776  7410.11  86.2158
 47.8756  7308.37  84.797
 48.0736  7407.67  85.8262
 48.2716  7280.35  84.9024
 48.4696  7523.85  85.874
 48.6676  7303.51  85.2195
 48.8656  7368.8  85.314
 49.0636  7516.94  86.1228
 49.2616  7269.83  84.7264
 49.4596  7341.86  84.7049
 49.6576  7329.34  84.8594
 49.8556  7306.44  84.7519
 50.0536  7329.49  85.3396
 50.2516  7329.54  85.4743
 50.4496  7229.7  84.5439
 50.6476  7289.66  84.564
 50.8456  7272.11  84.5481
 51.0436  7031.28  83.5835
 51.2416  7013.54  83.1451
 51.4396  6845.6  82.5499
 51.6376  6960.5  83.067
 51.8356  6955.37  82.6529
 52.0336  7008.05  83.4823
 52.2316  6943.87  83.4661
 52.4296  6979.16  83.3646
 52.6276  6848.51  82.697
 52.8256  6987.22  83.0853
 53.0236  7083.27  84.3198
 53.2216  6998.69  83.8515
 53.4196  6919.98  83.28
 53.6176  6883.26  83.5634
 53.8156  6899.51  83.331
 54.0136  6658.33  82.025
 54.2116  6885.78  83.0399
 54.4096  6572.13  81.202
 54.6076  6612.07  81.7962
 54.8056  6452.61  80.5643
 55.0036  6473.44  81.1023
 55.2016  6681.34  81.9289
 55.3996  6363.09  79.9285
 55.5976  6487.76  80.9069
 55.7956  6435.61  80.3817
 55.9936  6481.43  80.7989
 56.1916  6353.53  80.035
 56.3896  6281.71  79.556
 56.5876  6302.49  80.2429
 56.7856  6293.54  79.6771
 56.9836  6369.76  79.9558
 57.1816  6402.96  80.5237
 57.3796  6224.2  79.1962
 57.5776  6319.62  79.6847
 57.7756  6169.4  79.4082
 57.9736  6137.53  78.8716
 58.1716  6042.16  78.5198
 58.3696  6009.89  78.0686
 58.5676  5954.81  77.1907
 58.7656  5952.13  77.8348
 58.9636  5958.49  77.9086
 59.1616  6002.64  78.3258
 59.3596  6002.01  77.5742
 59.5576  6057.1  77.9863
 59.7556  5951.23  77.7169
 59.9536  5955.77  77.6461
 60.1516  6003.38  78.8019
 60.1996  0.0000000E+00  0.0000000E+00

File: 17_Db_f00081.xye
# /beamlines/bl04/projects/cycle2025-II/20250340211-lsimonelli/DATA/IS17_D/17_Db_f00081.xye : mythproc.py merge -s 0.006 -l 0.5 -f /beamlines/bl04/inhouse/ff/FlatField/ff_20Nov2024rod8mm60s_17keV.raw -b True -c true -o xye /beamlines/bl04/projects/cycle2025-II/20250340211-lsimonelli/DATA/IS17_D/17_Db_00081.dat
# IsMon = [6743523, 6740255, 6740564]  IsPos = [-1.4999, -2.4884, -3.4988]
# Wave = 0.4962  CalPath /beamlines/bl04/projects/cycle2025-II/20250340211-lsimonelli/DATA/Align/Si_Pos1_25keV_f00001.cal
# Date = 2025-09-24_16:16:08 Dt = 4.8000  Bin = 0.0060  <imon> = 6741447 +/- 1473 (Min/Max) 6740255 / 6743523
# icurr 248.8802  mocoIn 1.6973E-05  mocoOut 0.7963  i15 7.06301e+06  imon 6.74145e+06  i7 7.0000  iEMpd_timer 4.8000  iEMpd_1 3.2870E-08  iEMpd_2 7.8538E-08  iEMpd_3 1.6481E-08  iEMpd_4 4.7196E-08  iEMhp_timer 4.8000  iEMhp_1 4.8625E-06  iEMhp_2 -2.5190E-08  iEMhp_3 -2.3024E-08  iEMhp_4 -2.1008E-08
#      9776
 1.7416  69350.8  263.38
 1.9396  47349.7  217.901
 2.1376  34866.4  186.988
 2.3356  31253.6  176.663
 2.5336  29961.5  173.581
 2.7316  26440.3  163.198
 2.9296  25269.6  159.694
 3.1276  24831  157.835
 3.3256  24276.4  155.748
 3.5236  25710.7  160.088
 3.7216  23674  154.855
 3.9196  23235.4  152.633
 4.1176  23172.4  152.202
 4.3156  23969.1  154.976
 4.5136  26681.8  162.482
 4.7116  27553.4  166.254
 4.9096  26828.6  163.484
 5.1076  26347.3  162.577
 5.3056  26589.2  163.051
 5.5036  26346.8  162.226
 5.7016  26839.9  163.697
 5.8996  27304.2  164.341
 6.0976  28130.6  168.2
 6.2956  28343.7  168.207
 6.4936  29003.7  169.338
 6.6916  29273.9  171.113
 6.8896  30044.6  173.2
 7.0876  30997  176.668
 7.2856  30998.9  175.726
 7.4836  31338.8  176.044
 7.6816  32173  178.866
 7.8796  33091.7  181.432
 8.0776  35347.2  188.511
 8.2756  36365.1  189.833
 8.4736  36544.8  190.109
 8.6716  36010.4  189.326
 8.8696  36852.5  192.008
 9.0676  36313.6  189.925
 9.2656  34976.7  187.087
 9.4636  33803.2  182.407
 9.6616  33078.1  181.158
 9.8596  32481.9  178.96
 10.0576  30510.4  174.119
 10.2556  29865.9  172.705
 10.4536  31050.8  175.693
 10.6516  31343.3  176.734
 10.8496  27292.7  164.336
 11.0476  26750.2  162.717
 11.2456  27508.3  165.563
 11.4436  26233.4  160.838
 11.6416  25555.3  159.092
 11.8396  24315  155.382
 12.0376  23940.7  153.83
 12.2356  24350.7  155.564
 12.4336  23765.2  153.226
 12.6316  23314.1  152.012
 12.8296  23763.2  153.091
 13.0276  23825.8  153.512
 13.2256  23900.1  154.108
 13.4236  23877.4  153.808
 13.6216  24211.1  154.864
 13.8196  26499.7  161.472
 14.0176  23270.9  151.916
 14.2156  23003.7  150.071
 14.4136  21746.9  147.285
 14.6116  21680.4  146.263
 14.8096  20760  143.107
 15.0076  19971.1  144.219
 15.2056  18997  136.528
 15.4036  18206.5  134.476
 15.6016  17657.9  131.537
 15.7996  17292  130.44
 15.9976  16934.5  131.947
 16.1956  16691.2  128.88
 16.3936  16367.9  126.814
 16.5916  16236.5  126.945
 16.7896  16184.6  126.801
 16.9876  15971.7  127.416
 17.1856  15764.7  124.981
 17.3836  15527  123.937
 17.5816  15064.2  122.554
 17.7796  14903.2  121.825
 17.9776  14924.9  122.705
 18.1756  15255.7  122.778
 18.3736  15149.6  122.841
 18.5716  14402.1  119.521
 18.7696  14400.6  119.084
 18.9676  14121.1  117.707
 19.1656  13723.1  116.64
 19.3636  13579.6  116.218
 19.5616  13616.6  116.54
 19.7596  13999.8  117.559
 19.9576  14312.7  118.914
 20.1556  13579.2  116.352
 20.3536  13422.2  115.063
 20.5516  13117.8  114.187
 20.7496  12939.4  113.345
 20.9476  13064.8  113.651
 21.1456  13006  113.724
 21.3436  12775.8  112.662
 21.5416  12584.7  111.831
 21.7396  12446.1  111.057
 21.9376  12435  110.785
 22.1356  12576.1  111.528
 22.3336  12272.9  110.471
 22.5316  12241.1  110.418
 22.7296  12139  109.335
 22.9276  11932.9  109.056
 23.1256  12360.4  110.466
 23.3236  12400.3  111.203
 23.5216  12337.2  110.554
 23.7196  12342.1  110.535
 23.9176  12330.5  110.226
 24.1156  12011.2  109.258
 24.3136  11777.9  108.988
 24.5116  11906.9  109.106
 24.7096  11566.6  107.341
 24.9076  11536.2  107.233
 25.1056  11213.2  106.182
 25.3036  10912.9  104.277
 25.5016  10883.6  104.172
 25.6996  10947.2  104.062
 25.8976  11099.9  105.219
 26.0956  10816.3  103.877
 26.2936  10665.1  102.818
 26.4916  11023.4  104.39
 26.6896  10593.5  102.629
 26.8876  10558.8  102.314
 27.0856  10439.2  101.802
 27.2836  10131.4  100.174
 27.4816  10176  100.333
 27.6796  10096.2  100.295
 27.8776  10409.4  101.695
 28.0756  10005.3  100.003
 28.2736  9975.28  99.4295
 28.4716  9742.05  98.3131
 28.6696  9837.25  98.6456
 28.8676  9701.23  98.3045
 29.0656  9590.02  97.7159
 29.2636  9625.97  97.6957
 29.4616  9385.72  96.6569
 29.6596  9239.91  95.4817
 29.8576  9205.93  95.977
 30.0556  9348.15  96.594
 30.2536  9245.2  95.8541
 30.4516  9429.86  96.4361
 30.6496  9433.02  96.1883
 30.8476  9240.81  95.6444
 31.0456  9362.73  96.2306
 31.2436  9301.01  95.1809
 31.4416  9212.55  94.9176
 31.6396  9369.55  95.7602
 31.8376  9328.72  95.0732
 32.0356  9149.35  94.7401
 32.2336  9196.56  94.375
 32.4316  8849.38  92.9841
 32.6296  8761.84  92.3625
 32.8276  8824.8  92.4707
 33.0256  8749.64  92.1462
 33.2236  8771.66  92.3999
 33.4216  8801.44  92.2664
 33.6196  8609.89  91.5412
 33.8176  8727.97  92.333
 34.0156  8557.16  91.0514
 34.2136  8524.28  90.8934
 34.4116  8415.56  90.4849
 34.6096  8430.59  90.4412
 34.8076  8367.84  90.5164
 35.0056  8403.82  90.3812
 35.2036  8649.63  91.9099
 35.4016  8338.88  90.1721
 35.5996  8342.29  90.2218
 35.7976  8216.83  89.8074
 35.9956  8386.59  90.3839
 36.1936  8419.82  90.4103
 36.3916  8222.12  89.5436
 36.5896  8254.44  90.6977
 36.7876  7985.31  88.6167
 36.9856  7945.73  88.4244
 37.1836  8074.98  88.2528
 37.3816  7844.9  87.3428
 37.5796  7892.79  89.2944
 37.7776  8122.53  88.9554
 37.9756  8004.74  88.1845
 38.1736  8165.83  89.2696
 38.3716  7991.81  88.5723
 38.5696  7908.86  88.4908
 38.7676  7776.68  87.2701
 38.9656  7841.78  87.2674
 39.1636  7901.37  87.8619
 39.3616  7906.65  87.8355
 39.5596  7814.42  88.1463
 39.7576  7642.35  86.5744
 39.9556  7767.58  86.9239
 40.1536  7930.71  88.0257
 40.3516  7935.32  88.0641
 40.5496  7783.42  87.4582
 40.7476  7910.18  88.1828
 40.9456  7857.13  87.6479
 41.1436  7906.62  87.6396
 41.3416  7708.37  86.8695
 41.5396  7816.05  87.2837
 41.7376  7837.02  87.6556
 41.9356  7768.52  87.1292
 42.1336  7914.79  88.0868
 42.3316  7640.77  86.7594
 42.5296  7777.32  87.0445
 42.7276  7830.59  87.5908
 42.9256  7730.62  86.901
 43.1236  7531.14  85.8746
 43.3216  7751.81  86.8712
 43.5196  7595.09  86.0418
 43.7176  7756.63  87.3492
 43.9156  7380.56  85.14
 44.1136  7528.46  85.5433
 44.3116  7507.33  85.4345
 44.5096  7433.75  85.3234
 44.7076  7356.92  84.8117
 44.9056  7632.48  86.2415
 45.1036  7431.25  84.7232
 45.3016  7473.01  85.4533
 45.4996  7519.4  85.6656
 45.6976  7361.63  84.9415
 45.8956  7421.66  85.097
 46.0936  7568.83  85.9394
 46.2916  7412.95  85.0317
 46.4896  7394.63  84.9414
 46.6876  7349.65  85.4078
 46.8856  7323.05  84.5114
 47.0836  7251.38  84.3498
 47.2816  7267.45  84.3297
 47.4796  7296.22  84.6031
 47.6776  7219.57  85.0959
 47.8756  7278.28  84.6193
 48.0736  7319.11  85.3147
 48.2716  7215.97  84.5201
 48.4696  7469.14  85.5822
 48.6676  7243.66  84.8679
 48.8656  7260.27  84.6725
 49.0636  7336.82  85.0882
 49.2616  7093.72  83.7078
 49.4596  7278.07  84.3391
 49.6576  7116.71  83.6248
 49.8556  7077.97  83.416
 50.0536  7177.58  84.447
 50.2516  7161.03  84.4839
 50.4496  7278.13  84.823
 50.6476  7188.6  83.9768
 50.8456  7090.78  83.4728
 51.0436  6979.58  83.2924
 51.2416  6915.52  82.5805
 51.4396  6743.79  81.9482
 51.6376  6896.15  82.6867
 51.8356  6881.46  82.2157
 52.0336  6894.82  82.8066
 52.2316  6867.9  83.0073
 52.4296  6854.49  82.6277
 52.6276  6768.45  82.2169
 52.8256  6964.56  82.9488
 53.0236  6955.48  83.5404
 53.2216  6949.76  83.5474
 53.4196  6782.18  82.43
 53.6176  6830.55  83.2272
 53.8156  6700.14  82.1013
 54.0136  6631.05  81.8618
 54.2116  6731.58  82.1104
 54.4096  6508.72  80.8049
 54.6076  6473.75  80.9351
 54.8056  6427.08  80.4195
 55.0036  6417.79  80.7598
 55.2016  6645.98  81.7056
 55.3996  6318.54  79.6519
 55.5976  6382.14  80.2464
 55.7956  6339.53  79.7779
 55.9936  6437.61  80.5202
 56.1916  6235.67  79.2909
 56.3896  6211.28  79.1159
 56.5876  6289.02  80.161
 56.7856  6131.54  78.6636
 56.9836  6324.79  79.6411
 57.1816  6341.74  80.126
 57.3796  6188.61  78.9768
 57.5776  6181.06  78.8053
 57.7756  6148.92  79.2872
 57.9736  5987.46  77.893
 58.1716  6004.21  78.2737
 58.3696  5880.92  77.2361
 58.5676  5906.88  76.8835
 58.7656  5919.52  77.6365
 58.9636  5870.1  77.3423
 59.1616  5945.08  77.9603
 59.3596  5889.21  76.8664
 59.5576  5850.89  76.6716
 59.7556  5801.36  76.7564
 59.9536  5835.13  76.8801
 60.1516  5803.28  77.5021
 60.1996  0.0000000E+00  0.0000000E+00