Folder: echemistpy/docs/examples/opeando_xrd/IS17_D/Data/IS17_D (part 109)

File: 17_Db_f00125.xye
# /beamlines/bl04/projects/cycle2025-II/20250340211-lsimonelli/DATA/IS17_D/17_Db_f00125.xye : mythproc.py merge -s 0.006 -l 0.5 -f /beamlines/bl04/inhouse/ff/FlatField/ff_20Nov2024rod8mm60s_17keV.raw -b True -c true -o xye /beamlines/bl04/projects/cycle2025-II/20250340211-lsimonelli/DATA/IS17_D/17_Db_00125.dat
# IsMon = [6744326, 6745294, 6752073]  IsPos = [-1.4999, -2.4884, -3.4988]
# Wave = 0.4962  CalPath /beamlines/bl04/projects/cycle2025-II/20250340211-lsimonelli/DATA/Align/Si_Pos1_25keV_f00001.cal
# Date = 2025-09-25_04:33:32 Dt = 4.8000  Bin = 0.0060  <imon> = 6747231 +/- 3447 (Min/Max) 6744326 / 6752073
# icurr 249.4504  mocoIn 1.7014E-05  mocoOut 0.7984  i15 7.06878e+06  imon 6.74723e+06  i7 4.3333  iEMpd_timer 4.8000  iEMpd_1 3.5188E-08  iEMpd_2 7.9140E-08  iEMpd_3 1.5854E-08  iEMpd_4 4.9080E-08  iEMhp_timer 4.8000  iEMhp_1 4.8733E-06  iEMhp_2 -2.5426E-08  iEMhp_3 -2.4819E-08  iEMhp_4 -2.1225E-08
#      9776
 1.7416  69573  263.9
 1.9396  48703.6  221.088
 2.1376  35845  189.663
 2.3356  31805.5  178.282
 2.5336  29678.3  172.823
 2.7316  26928.4  164.733
 2.9296  25929.2  161.802
 3.1276  25497.1  159.989
 3.3256  24730.2  157.22
 3.5236  26206  161.649
 3.7216  24113.8  156.294
 3.9196  23851.3  154.626
 4.1176  23566.7  153.508
 4.3156  24500.5  156.668
 4.5136  26797.8  162.841
 4.7116  27878.4  167.226
 4.9096  27277  164.844
 5.1076  27012.4  164.636
 5.3056  26957.8  164.169
 5.5036  27056  164.396
 5.7016  27315.7  165.135
 5.8996  27888.9  166.092
 6.0976  28809.3  170.235
 6.2956  28712.3  169.286
 6.4936  29692.5  171.344
 6.6916  29822.4  172.708
 6.8896  30659.9  174.969
 7.0876  31839.8  179.053
 7.2856  31637  177.523
 7.4836  31986.5  177.852
 7.6816  32808.4  180.646
 7.8796  33699.4  183.057
 8.0776  35311.4  188.378
 8.2756  36845.4  191.024
 8.4736  37538.8  192.642
 8.6716  36905.3  191.648
 8.8696  37492.6  193.663
 9.0676  36788  191.155
 9.2656  35756.7  189.158
 9.4636  34869.1  185.231
 9.6616  34284.8  184.401
 9.8596  33540.2  181.901
 10.0576  31506.5  176.974
 10.2556  30553.2  174.719
 10.4536  29850  172.297
 10.6516  29080.3  170.272
 10.8496  28015.4  166.497
 11.0476  26952.9  163.335
 11.2456  26504.3  162.513
 11.4436  27212.3  163.821
 11.6416  26239.3  161.205
 11.8396  25029.8  157.665
 12.0376  24494.2  155.585
 12.2356  24074  154.679
 12.4336  23912  153.692
 12.6316  24047.7  154.405
 12.8296  24172.1  154.406
 13.0276  24574.8  155.892
 13.2256  24490.3  156
 13.4236  24269.1  155.061
 13.6216  24718.5  156.499
 13.8196  26791.2  162.403
 14.0176  23831.6  153.727
 14.2156  23520.9  151.753
 14.4136  22230.2  148.906
 14.6116  21923.4  147.071
 14.8096  21252.5  144.78
 15.0076  20348.2  145.573
 15.2056  19428.9  138.042
 15.4036  18574.6  135.804
 15.6016  18310.2  133.923
 15.7996  17671.2  131.824
 15.9976  17386.7  133.676
 16.1956  17058.8  130.29
 16.3936  16894.9  128.837
 16.5916  16488.3  127.907
 16.7896  16406.9  127.669
 16.9876  16434  129.24
 17.1856  16042.6  126.096
 17.3836  15757.9  124.881
 17.5816  15530.7  124.463
 17.7796  15072.1  122.541
 17.9776  14782.6  122.107
 18.1756  14912.9  121.393
 18.3736  14669.3  120.886
 18.5716  14419.7  119.602
 18.7696  14489.4  119.459
 18.9676  14285.6  118.419
 19.1656  13946.7  117.569
 19.3636  13984.2  117.929
 19.5616  13989.7  118.124
 19.7596  14243.7  118.598
 19.9576  14657.7  120.335
 20.1556  13992.6  118.104
 20.3536  13602.4  115.84
 20.5516  13318  115.053
 20.7496  13202.1  114.488
 20.9476  13152.2  114.041
 21.1456  13026.3  113.806
 21.3436  12973.6  113.537
 21.5416  12831.6  112.922
 21.7396  12751.6  112.414
 21.9376  12588.2  111.456
 22.1356  12639  111.813
 22.3336  12436.9  111.195
 22.5316  12435.1  111.271
 22.7296  12415.1  110.548
 22.9276  12299.2  110.696
 23.1256  12445.8  110.82
 23.3236  12669.2  112.4
 23.5216  12738.3  112.337
 23.7196  12618.9  111.765
 23.9176  12440.6  110.735
 24.1156  12053.5  109.439
 24.3136  11941.6  109.761
 24.5116  12038.7  109.727
 24.7096  11704.4  108.01
 24.9076  11615.7  107.626
 25.1056  11309  106.658
 25.3036  11114  105.237
 25.5016  11126.8  105.334
 25.6996  10984.6  104.241
 25.8976  10995.5  104.721
 26.0956  10985.2  104.669
 26.2936  11012.9  104.481
 26.4916  11115.9  104.82
 26.6896  10819.5  103.717
 26.8876  10627.9  102.659
 27.0856  10515.6  102.165
 27.2836  10468.2  101.832
 27.4816  10347.5  101.177
 27.6796  10274.1  101.184
 27.8776  10444.5  101.88
 28.0756  10126.7  100.599
 28.2736  10088.4  99.9907
 28.4716  9902.85  99.1229
 28.6696  9990.3  99.4028
 28.8676  9738.21  98.4921
 29.0656  9747.12  98.5171
 29.2636  9783.22  98.4955
 29.4616  9430.6  96.8726
 29.6596  9421.1  96.3943
 29.8576  9262.72  96.2569
 30.0556  9348.07  96.5637
 30.2536  9479.54  97.0485
 30.4516  9576.66  97.1843
 30.6496  9487.24  96.4618
 30.8476  9610.49  97.5295
 31.0456  9495.29  96.9151
 31.2436  9458.43  95.9973
 31.4416  9225.27  95.0042
 31.6396  9360.33  95.7315
 31.8376  9443.31  95.6887
 32.0356  9419.04  96.1488
 32.2336  9327.23  95.0675
 32.4316  8906.45  93.2852
 32.6296  8922.44  93.211
 32.8276  9001.97  93.4051
 33.0256  8975.22  93.3342
 33.2236  9026.42  93.7448
 33.4216  8835.15  92.4214
 33.6196  8781.03  92.4425
 33.8176  8786.05  92.6402
 34.0156  8778.63  92.2185
 34.2136  8859.83  92.673
 34.4116  8611.82  91.525
 34.6096  8684.87  91.7967
 34.8076  8530.19  91.3907
 35.0056  8613.1  91.4997
 35.2036  8682.35  92.0945
 35.4016  8418.3  90.5931
 35.5996  8550  91.3396
 35.7976  8353.72  90.5573
 35.9956  8620.86  91.6343
 36.1936  8546.84  91.0926
 36.3916  8331.82  90.1359
 36.5896  8270.03  90.7921
 36.7876  8128.52  89.394
 36.9856  7950.96  88.4371
 37.1836  8069.23  88.1962
 37.3816  8031.95  88.3558
 37.5796  8093.16  90.4274
 37.7776  8250.09  89.6565
 37.9756  8092.27  88.6755
 38.1736  8188.04  89.3882
 38.3716  8114.86  89.2627
 38.5696  7969.52  88.8182
 38.7676  7964.42  88.3371
 38.9656  7961.64  87.9448
 39.1636  8000.03  88.4312
 39.3616  8000.73  88.37
 39.5596  7829.61  88.2227
 39.7576  7851.51  87.754
 39.9556  7931.91  87.8404
 40.1536  7963.36  88.2094
 40.3516  8061.73  88.7655
 40.5496  7956.15  88.4426
 40.7476  7984.19  88.5936
 40.9456  8015.03  88.522
 41.1436  8040.45  88.3871
 41.3416  7882.76  87.8427
 41.5396  7780.81  87.0829
 41.7376  7882.11  87.9117
 41.9356  7890.22  87.8188
 42.1336  8115.66  89.2069
 42.3316  7760.58  87.4304
 42.5296  7868.7  87.5498
 42.7276  7831.42  87.5915
 42.9256  7952.73  88.135
 43.1236  7785.82  87.3007
 43.3216  7802.58  87.1488
 43.5196  7699.54  86.6461
 43.7176  7826.27  87.7459
 43.9156  7436.46  85.4463
 44.1136  7681.59  86.3931
 44.3116  7649.47  86.2173
 44.5096  7564.22  86.05
 44.7076  7514.65  85.6954
 44.9056  7765.02  86.9805
 45.1036  7664.07  86.0332
 45.3016  7626.57  86.3268
 45.4996  7499.13  85.5454
 45.6976  7483.37  85.6268
 45.8956  7620.77  86.251
 46.0936  7575.1  86.0006
 46.2916  7582.67  86.0153
 46.4896  7747.86  86.9796
 46.6876  7592.67  86.8233
 46.8856  7563.95  85.8986
 47.0836  7415.09  85.3053
 47.2816  7411.29  85.1598
 47.4796  7397.46  85.1709
 47.6776  7310.01  85.6372
 47.8756  7347.27  85.0159
 48.0736  7459.52  86.1257
 48.2716  7309.31  85.0672
 48.4696  7528.17  85.9177
 48.6676  7493  86.3067
 48.8656  7422.13  85.6176
 49.0636  7379.41  85.3337
 49.2616  7285.65  84.8251
 49.4596  7389.6  84.9878
 49.6576  7329.82  84.867
 49.8556  7391.16  85.2416
 50.0536  7276.32  85.0295
 50.2516  7293.92  85.267
 50.4496  7285.58  84.873
 50.6476  7249.48  84.3327
 50.8456  7293.37  84.6681
 51.0436  7084.94  83.9
 51.2416  7068.93  83.4683
 51.4396  6872.36  82.7113
 51.6376  6985.53  83.2178
 51.8356  7029.96  83.0903
 52.0336  6997.45  83.3997
 52.2316  6970.81  83.6253
 52.4296  6936.53  83.1073
 52.6276  6849.37  82.6894
 52.8256  6948.12  82.8499
 53.0236  7057.59  84.1691
 53.2216  7042.33  84.1218
 53.4196  6978.4  83.6389
 53.6176  6962.73  84.0614
 53.8156  6892.17  83.2937
 54.0136  6632.56  81.857
 54.2116  6798.35  82.5179
 54.4096  6684.3  81.8906
 54.6076  6588.04  81.6467
 54.8056  6493.48  80.8383
 55.0036  6559.22  81.6518
 55.2016  6722.23  82.1618
 55.3996  6350.63  79.8584
 55.5976  6469.58  80.7859
 55.7956  6449.84  80.4799
 55.9936  6502.19  80.9327
 56.1916  6441.66  80.5947
 56.3896  6308.28  79.7202
 56.5876  6298.55  80.2372
 56.7856  6295.25  79.7045
 56.9836  6302.65  79.5258
 57.1816  6477.91  80.9845
 57.3796  6339.06  79.9302
 57.5776  6443.84  80.47
 57.7756  6207.33  79.6562
 57.9736  6204.55  79.2818
 58.1716  6159.45  79.2718
 58.3696  5923.55  77.5099
 58.5676  6033.98  77.6973
 58.7656  5969.75  77.948
 58.9636  5931.03  77.7178
 59.1616  6020.11  78.4399
 59.3596  6056.09  77.915
 59.5576  6010.05  77.6746
 59.7556  5965.7  77.803
 59.9536  5967.33  77.7131
 60.1516  6004.99  78.8041
 60.1996  0.0000000E+00  0.0000000E+00

File: 17_Db_f00127.xye
# /beamlines/bl04/projects/cycle2025-II/20250340211-lsimonelli/DATA/IS17_D/17_Db_f00127.xye : mythproc.py merge -s 0.006 -l 0.5 -f /beamlines/bl04/inhouse/ff/FlatField/ff_20Nov2024rod8mm60s_17keV.raw -b True -c true -o xye /beamlines/bl04/projects/cycle2025-II/20250340211-lsimonelli/DATA/IS17_D/17_Db_00127.dat
# IsMon = [6765243, 6762612, 6763670]  IsPos = [-1.4999, -2.4884, -3.4988]
# Wave = 0.4962  CalPath /beamlines/bl04/projects/cycle2025-II/20250340211-lsimonelli/DATA/Align/Si_Pos1_25keV_f00001.cal
# Date = 2025-09-25_05:06:41 Dt = 4.8000  Bin = 0.0060  <imon> = 6763842 +/- 1081 (Min/Max) 6762612 / 6765243
# icurr 250.9404  mocoIn 1.7112E-05  mocoOut 0.8029  i15 7.08783e+06  imon 6.76384e+06  i7 5.3333  iEMpd_timer 4.8000  iEMpd_1 3.4414E-08  iEMpd_2 7.9146E-08  iEMpd_3 1.6396E-08  iEMpd_4 4.8509E-08  iEMhp_timer 4.8000  iEMhp_1 4.9017E-06  iEMhp_2 -2.5135E-08  iEMhp_3 -2.2544E-08  iEMhp_4 -2.0644E-08
#      9776
 1.7416  70180.2  264.964
 1.9396  48850.4  221.345
 2.1376  35705.8  189.234
 2.3356  31819.3  178.263
 2.5336  29532.1  172.342
 2.7316  27086.6  165.186
 2.9296  25936.1  161.803
 3.1276  25731.8  160.69
 3.3256  24893.1  157.723
 3.5236  26344.2  162.053
 3.7216  24337  157.015
 3.9196  23803.2  154.487
 4.1176  23772  154.163
 4.3156  24799.1  157.636
 4.5136  26984.6  163.405
 4.7116  28163.7  168.08
 4.9096  27375.7  165.137
 5.1076  27039.8  164.704
 5.3056  27251.8  165.075
 5.5036  26908  163.944
 5.7016  27371.6  165.31
 5.8996  28217.5  167.065
 6.0976  28898.1  170.487
 6.2956  28989.8  170.114
 6.4936  29730.8  171.458
 6.6916  29843.9  172.775
 6.8896  30885.9  175.606
 7.0876  31685.5  178.62
 7.2856  31724.9  177.767
 7.4836  32187.8  178.408
 7.6816  33032.1  181.253
 7.8796  33850.6  183.502
 8.0776  35420.6  188.702
 8.2756  37181.7  191.945
 8.4736  37480.7  192.523
 8.6716  37288  192.656
 8.8696  37922  194.774
 9.0676  36954.8  191.601
 9.2656  36183.4  190.293
 9.4636  35186.3  186.098
 9.6616  34310.6  184.501
 9.8596  33698.7  182.297
 10.0576  31651.1  177.344
 10.2556  31006  175.977
 10.4536  30326.9  173.634
 10.6516  29396.1  171.163
 10.8496  28274.8  167.271
 11.0476  27410.1  164.714
 11.2456  26699.6  163.096
 11.4436  27654.6  165.142
 11.6416  26163.6  160.967
 11.8396  25224.7  158.262
 12.0376  24704.5  156.271
 12.2356  24206.4  155.104
 12.4336  24244.9  154.766
 12.6316  24303.5  155.214
 12.8296  24412.8  155.168
 13.0276  24818.4  156.672
 13.2256  24678.4  156.598
 13.4236  24545.7  155.944
 13.6216  24880.1  156.992
 13.8196  27019.1  163.047
 14.0176  23944.9  154.103
 14.2156  23719.6  152.391
 14.4136  22488.5  149.774
 14.6116  22168.2  147.895
 14.8096  21307.4  144.976
 15.0076  20307.8  145.428
 15.2056  19604.5  138.692
 15.4036  18576  135.836
 15.6016  18365.1  134.145
 15.7996  17802.6  132.348
 15.9976  17613.3  134.548
 16.1956  17000.5  130.075
 16.3936  16967.9  129.122
 16.5916  16661.2  128.589
 16.7896  16819  129.26
 16.9876  16519.8  129.58
 17.1856  16200.8  126.699
 17.3836  15848.6  125.217
 17.5816  15574.3  124.614
 17.7796  15399.6  123.843
 17.9776  14931.4  122.724
 18.1756  15006.9  121.774
 18.3736  14843.2  121.596
 18.5716  14813  121.216
 18.7696  14586.6  119.845
 18.9676  14499.5  119.293
 19.1656  14132.4  118.361
 19.3636  13963.2  117.848
 19.5616  14190.5  118.969
 19.7596  14397.8  119.21
 19.9576  14973.9  121.637
 20.1556  14009.1  118.178
 20.3536  13653.5  116.052
 20.5516  13462.1  115.682
 20.7496  13177.1  114.388
 20.9476  13218  114.317
 21.1456  13113.6  114.199
 21.3436  13038.7  113.818
 21.5416  13036.6  113.82
 21.7396  12823.5  112.73
 21.9376  12662.5  111.793
 22.1356  12815.9  112.591
 22.3336  12531.8  111.629
 22.5316  12541.3  111.763
 22.7296  12362.9  110.332
 22.9276  12306.6  110.746
 23.1256  12627.7  111.655
 23.3236  12766  112.829
 23.5216  12649.1  111.937
 23.7196  12604.7  111.702
 23.9176  12514.1  111.048
 24.1156  12334.8  110.716
 24.3136  12214.5  110.991
 24.5116  12216.7  110.511
 24.7096  11727.5  108.099
 24.9076  11636.7  107.698
 25.1056  11224.9  106.232
 25.3036  11004.8  104.717
 25.5016  11000.3  104.734
 25.6996  11130.2  104.926
 25.8976  11131.2  105.365
 26.0956  10994.6  104.729
 26.2936  11132.1  105.044
 26.4916  11096.5  104.735
 26.6896  10914.7  104.171
 26.8876  10785.3  103.403
 27.0856  10557.8  102.38
 27.2836  10390.3  101.445
 27.4816  10351.1  101.195
 27.6796  10372.2  101.667
 27.8776  10662.1  102.935
 28.0756  10263.4  101.282
 28.2736  10054.3  99.827
 28.4716  9909.48  99.1611
 28.6696  10012  99.5202
 28.8676  9908.81  99.3523
 29.0656  9717.95  98.369
 29.2636  9797.18  98.5599
 29.4616  9509.48  97.2929
 29.6596  9508.21  96.8543
 29.8576  9430.99  97.1421
 30.0556  9446.8  97.1004
 30.2536  9636.03  97.8589
 30.4516  9519.93  96.8969
 30.6496  9515.6  96.6078
 30.8476  9567.57  97.3169
 31.0456  9464.14  96.7565
 31.2436  9623.19  96.8191
 31.4416  9414.93  95.9565
 31.6396  9519.2  96.526
 31.8376  9377.51  95.3271
 32.0356  9281.72  95.4101
 32.2336  9272.88  94.7701
 32.4316  8958.94  93.557
 32.6296  9037.47  93.8041
 32.8276  9105.39  93.9417
 33.0256  8997.42  93.4422
 33.2236  8987.07  93.5352
 33.4216  8960.77  93.0928
 33.6196  8902.98  93.0801
 33.8176  8980.62  93.6539
 34.0156  8839.9  92.5431
 34.2136  8869.55  92.717
 34.4116  8519.21  91.0395
 34.6096  8670.38  91.7193
 34.8076  8549.46  91.4938
 35.0056  8491.35  90.8458
 35.2036  8797.79  92.7019
 35.4016  8506.69  91.0684
 35.5996  8530.25  91.2365
 35.7976  8360.15  90.596
 35.9956  8591.55  91.4761
 36.1936  8517.77  90.9382
 36.3916  8359.97  90.2868
 36.5896  8338.25  91.1585
 36.7876  8219.56  89.9062
 36.9856  7909.43  88.2219
 37.1836  8107.68  88.4287
 37.3816  8094.15  88.7161
 37.5796  8181.03  90.9135
 37.7776  8299.76  89.9112
 37.9756  8121.46  88.8308
 38.1736  8210.48  89.5082
 38.3716  8228.94  89.8825
 38.5696  7987.14  88.9344
 38.7676  8119.23  89.1743
 38.9656  8088.28  88.6286
 39.1636  8015.96  88.502
 39.3616  8064.7  88.7103
 39.5596  7913.44  88.7031
 39.7576  7932.84  88.2067
 39.9556  7970.83  88.0546
 40.1536  7972.53  88.255
 40.3516  8137.71  89.1722
 40.5496  8012.97  88.7574
 40.7476  7928.43  88.2807
 40.9456  8043.64  88.6805
 41.1436  8038.4  88.365
 41.3416  7822.26  87.5072
 41.5396  8022.05  88.4253
 41.7376  8030.53  88.7284
 41.9356  7920.65  87.9793
 42.1336  8208.99  89.7068
 42.3316  7873.21  88.068
 42.5296  7829.54  87.3377
 42.7276  7983.61  88.4374
 42.9256  7834.83  87.4784
 43.1236  7892.04  87.907
 43.3216  7872.45  87.5401
 43.5196  7812.42  87.2725
 43.7176  7837.58  87.8034
 43.9156  7496.84  85.804
 44.1136  7497.09  85.3618
 44.3116  7730.98  86.6989
 44.5096  7525.82  85.8483
 44.7076  7523.68  85.7643
 44.9056  7758.52  86.9504
 45.1036  7804.74  86.8176
 45.3016  7711.5  86.8124
 45.4996  7613.67  86.1982
 45.6976  7467.47  85.5456
 45.8956  7561.46  85.8971
 46.0936  7717.87  86.7805
 46.2916  7610.51  86.1562
 46.4896  7628.63  86.2875
 46.6876  7521.79  86.4015
 46.8856  7512.59  85.6106
 47.0836  7535.37  85.9887
 47.2816  7365.84  84.8985
 47.4796  7492.44  85.7301
 47.6776  7442.18  86.4137
 47.8756  7460.37  85.6702
 48.0736  7470.23  86.1863
 48.2716  7407.1  85.6378
 48.4696  7512.28  85.8232
 48.6676  7429.5  85.9483
 48.8656  7427.11  85.6641
 49.0636  7472.89  85.866
 49.2616  7349.67  85.195
 49.4596  7403.7  85.0611
 49.6576  7349.92  84.9891
 49.8556  7311.52  84.7792
 50.0536  7360.04  85.5192
 50.2516  7371.16  85.7099
 50.4496  7399.39  85.5282
 50.6476  7383.38  85.1067
 50.8456  7345.61  84.9738
 51.0436  7064.14  83.7872
 51.2416  7096.2  83.6487
 51.4396  6938.73  83.1238
 51.6376  7123.54  84.0435
 51.8356  7013.35  82.9984
 52.0336  7014.45  83.5117
 52.2316  6993.83  83.7638
 52.4296  7004.38  83.5236
 52.6276  6857.18  82.7505
 52.8256  7004.89  83.188
 53.0236  7119.43  84.5208
 53.2216  7038.69  84.0809
 53.4196  6853.79  82.8683
 53.6176  6895.97  83.6337
 53.8156  6864.79  83.1151
 54.0136  6720.72  82.4068
 54.2116  6843.31  82.7795
 54.4096  6646.68  81.6571
 54.6076  6757.45  82.6905
 54.8056  6527.39  81.0455
 55.0036  6600.44  81.8873
 55.2016  6710.15  82.0897
 55.3996  6436.3  80.3912
 55.5976  6587.03  81.5157
 55.7956  6496.46  80.7614
 55.9936  6625.08  81.6885
 56.1916  6372.93  80.1509
 56.3896  6317.39  79.7818
 56.5876  6445.56  81.1648
 56.7856  6367.9  80.1657
 56.9836  6431.96  80.319
 57.1816  6566.87  81.5337
 57.3796  6307.83  79.7304
 57.5776  6248.09  79.2437
 57.7756  6210.34  79.6825
 57.9736  6315.19  80.0168
 58.1716  6143.99  79.1842
 58.3696  6020.31  78.1425
 58.5676  6069.45  77.9344
 58.7656  6059.63  78.5479
 58.9636  5982.79  78.0783
 59.1616  6105.29  79.0016
 59.3596  6030.08  77.7755
 59.5576  6109.08  78.341
 59.7556  5941.58  77.6744
 59.9536  6095.19  78.5704
 60.1516  6007.52  78.85
 60.1996  0.0000000E+00  0.0000000E+00