Folder: echemistpy/docs/examples/opeando_xrd/IS17_D/Data/IS17_D (part 28)

File: 17_Da_f00075.xye
# /beamlines/bl04/projects/cycle2025-II/20250340211-lsimonelli/DATA/IS17_D/17_Da_f00075.xye : mythproc.py merge -s 0.006 -l 0.5 -f /beamlines/bl04/inhouse/ff/FlatField/ff_20Nov2024rod8mm60s_17keV.raw -b True -c true -o xye /beamlines/bl04/projects/cycle2025-II/20250340211-lsimonelli/DATA/IS17_D/17_Da_00075.dat
# IsMon = [6771702, 6776264, 6776985]  IsPos = [-1.4999, -2.4884, -3.4988]
# Wave = 0.4962  CalPath /beamlines/bl04/projects/cycle2025-II/20250340211-lsimonelli/DATA/Align/Si_Pos1_25keV_f00001.cal
# Date = 2025-09-24_14:25:42 Dt = 4.8000  Bin = 0.0060  <imon> = 6774984 +/- 2339 (Min/Max) 6771702 / 6776985
# icurr 251.2859  mocoIn 1.7137E-05  mocoOut 0.8037  i15 7.09088e+06  imon 6.77498e+06  i7 6.6667  iEMpd_timer 4.8000  iEMpd_1 3.3349E-08  iEMpd_2 7.9008E-08  iEMpd_3 1.6702E-08  iEMpd_4 4.6793E-08  iEMhp_timer 4.8000  iEMhp_1 4.9082E-06  iEMhp_2 -2.5360E-08  iEMhp_3 -2.5340E-08  iEMhp_4 -2.1713E-08
#      9776
 1.7416  68430.9  261.731
 1.9396  44624.4  211.62
 2.1376  31269.1  177.149
 2.3356  28063.3  167.47
 2.5336  27617.1  166.718
 2.7316  24551.6  157.276
 2.9296  23437  153.824
 3.1276  22887.3  151.579
 3.3256  22809.3  150.979
 3.5236  24558  156.47
 3.7216  22443.6  150.791
 3.9196  22370.9  149.789
 4.1176  21856.1  147.833
 4.3156  23110.9  152.161
 4.5136  26324.4  161.389
 4.7116  26816.5  164.019
 4.9096  26233.1  161.668
 5.1076  25632.2  160.38
 5.3056  25950.5  161.092
 5.5036  25828.8  160.613
 5.7016  25978.3  161.05
 5.8996  26806.7  162.813
 6.0976  27597.2  166.637
 6.2956  28007.4  167.196
 6.4936  28655  168.327
 6.6916  29096.1  170.61
 6.8896  30112.8  173.426
 7.0876  30826.5  176.185
 7.2856  30890.1  175.436
 7.4836  31683.2  177.01
 7.6816  32334  179.349
 7.8796  33675.9  183.007
 8.0776  38278.8  196.132
 8.2756  38313.5  194.803
 8.4736  38145.6  194.184
 8.6716  37126.6  192.209
 8.8696  37968.9  194.872
 9.0676  37447.5  192.899
 9.2656  35242.9  187.814
 9.4636  34789.4  185.006
 9.6616  34098.7  183.942
 9.8596  32791.8  179.86
 10.0576  31215.3  176.142
 10.2556  29869.5  172.742
 10.4536  33567.2  182.697
 10.6516  36450.1  190.611
 10.8496  27919.1  166.218
 11.0476  27715.1  165.633
 11.2456  30876.4  175.4
 11.4436  27003  163.19
 11.6416  26129.9  160.884
 11.8396  24717.2  156.689
 12.0376  24397.8  155.299
 12.2356  26324.3  161.736
 12.4336  25063.5  157.353
 12.6316  23546.7  152.793
 12.8296  24387  155.125
 13.0276  24810.1  156.639
 13.2256  24350.4  155.551
 13.4236  24701.7  156.437
 13.6216  24270.6  155.089
 13.8196  25143  157.609
 14.0176  24250.8  155.072
 14.2156  23658.9  152.211
 14.4136  22080.8  148.406
 14.6116  21900.3  147.014
 14.8096  21260.8  144.831
 15.0076  20309.2  145.372
 15.2056  19697.2  138.997
 15.4036  18818.9  136.685
 15.6016  18411.8  134.293
 15.7996  18199.1  133.791
 15.9976  17208.5  133.031
 16.1956  16767.5  129.212
 16.3936  16519.6  127.432
 16.5916  16689.1  128.721
 16.7896  16498.9  128.045
 16.9876  16206  128.365
 17.1856  16094.1  126.277
 17.3836  15062.4  122.064
 17.5816  15200.6  123.122
 17.7796  15083.8  122.578
 17.9776  15368.6  124.525
 18.1756  16374.4  127.176
 18.3736  16255.9  127.25
 18.5716  14670.6  120.64
 18.7696  14690.2  120.288
 18.9676  14216.6  118.138
 19.1656  14187.5  118.576
 19.3636  14066.4  118.274
 19.5616  14052.7  118.388
 19.7596  14008  117.613
 19.9576  14508.5  119.743
 20.1556  13703.4  116.88
 20.3536  13576.9  115.729
 20.5516  13283.3  114.909
 20.7496  13128.5  114.183
 20.9476  13394.2  115.087
 21.1456  13847.9  117.344
 21.3436  13029.3  113.781
 21.5416  13018.1  113.738
 21.7396  12654  111.977
 21.9376  12971.1  113.131
 22.1356  13060.2  113.648
 22.3336  12846.5  113.002
 22.5316  12916.4  113.388
 22.7296  12683.7  111.728
 22.9276  12484.4  111.519
 23.1256  13034.5  113.423
 23.3236  12409.2  111.235
 23.5216  12448.2  111.067
 23.7196  12437.5  110.95
 23.9176  12357.2  110.371
 24.1156  12225.5  110.247
 24.3136  12011  110.074
 24.5116  12114.4  110.069
 24.7096  12000.9  109.367
 24.9076  11596.3  107.539
 25.1056  11475  107.438
 25.3036  11188.7  105.584
 25.5016  11290.9  106.104
 25.6996  11200.6  105.259
 25.8976  11301.8  106.18
 26.0956  11331  106.331
 26.2936  11037.2  104.588
 26.4916  11093.8  104.73
 26.6896  10846.4  103.862
 26.8876  10664.2  102.843
 27.0856  10742.2  103.266
 27.2836  10482.1  101.899
 27.4816  10510.8  101.975
 27.6796  10296.6  101.302
 27.8776  10598.1  102.638
 28.0756  10316.3  101.544
 28.2736  10275  100.923
 28.4716  10087.4  100.048
 28.6696  10051.2  99.7145
 28.8676  9844.3  99.0256
 29.0656  9804.24  98.8018
 29.2636  9777.87  98.4655
 29.4616  9584.99  97.6608
 29.6596  9766.8  98.147
 29.8576  9611.07  98.0463
 30.0556  9744.96  98.6006
 30.2536  9620.29  97.7657
 30.4516  9594.05  97.3009
 30.6496  9594.95  97.0305
 30.8476  9432.04  96.641
 31.0456  9407.46  96.4826
 31.2436  9321.12  95.3109
 31.4416  9187.91  94.7968
 31.6396  9727.19  97.5918
 31.8376  9445.99  95.7114
 32.0356  9283.9  95.4558
 32.2336  9138.54  94.0969
 32.4316  9146.72  94.5364
 32.6296  9089.79  94.0773
 32.8276  9034.02  93.5635
 33.0256  8963.62  93.2775
 33.2236  8879.12  92.9862
 33.4216  9018.56  93.3955
 33.6196  8889.9  93.019
 33.8176  8954.64  93.5191
 34.0156  8830.5  92.4858
 34.2136  8796.64  92.3559
 34.4116  8707.4  92.0324
 34.6096  8891.41  92.8757
 34.8076  8627.87  91.8988
 35.0056  8703.44  91.9892
 35.2036  8599.49  91.6491
 35.4016  8573.31  91.4262
 35.5996  8489.99  91.0201
 35.7976  8389.7  90.7546
 35.9956  8553.18  91.2715
 36.1936  8416.75  90.415
 36.3916  8355.5  90.2676
 36.5896  8457.12  91.7885
 36.7876  8427.17  91.0205
 36.9856  8243.36  90.0502
 37.1836  8201.18  88.9221
 37.3816  8375.26  90.2279
 37.5796  8168.2  90.8379
 37.7776  8047.23  88.5476
 37.9756  8106.47  88.7462
 38.1736  8377.03  90.4267
 38.3716  8184.71  89.6569
 38.5696  8015.18  89.0985
 38.7676  7824.77  87.5441
 38.9656  7931.78  87.7824
 39.1636  7935.81  88.0746
 39.3616  8012.95  88.4221
 39.5596  7969.74  89.034
 39.7576  7904.12  88.0329
 39.9556  7946.07  87.9159
 40.1536  8076.31  88.8377
 40.3516  8099.38  88.9696
 40.5496  8048.91  88.9578
 40.7476  8010.55  88.7462
 40.9456  8138.34  89.1965
 41.1436  8095.47  88.6884
 41.3416  8090.2  88.9892
 41.5396  8019.23  88.411
 41.7376  8034.32  88.7636
 41.9356  7955.37  88.1833
 42.1336  7967.48  88.4028
 42.3316  7921.8  88.3391
 42.5296  7932.71  87.9185
 42.7276  7936.44  88.1755
 42.9256  7933.4  88.032
 43.1236  7901.78  87.9634
 43.3216  7890.46  87.6485
 43.5196  7673.91  86.5068
 43.7176  7722.47  87.1662
 43.9156  7614.23  86.4575
 44.1136  7647.83  86.2015
 44.3116  7699.3  86.5051
 44.5096  7491.43  85.6327
 44.7076  7558.72  85.9471
 44.9056  7587.8  85.9965
 45.1036  7545.31  85.3808
 45.3016  7426.13  85.202
 45.4996  7465.99  85.3687
 45.6976  7332.96  84.7747
 45.8956  7398.04  84.9713
 46.0936  7515.43  85.6528
 46.2916  7464  85.336
 46.4896  7406.77  85.0394
 46.6876  7220.36  84.6677
 46.8856  7202.4  83.8309
 47.0836  7229.62  84.2369
 47.2816  7093.25  83.31
 47.4796  7172.07  83.8716
 47.6776  7067.09  84.1911
 47.8756  7057.47  83.328
 48.0736  7163.15  84.4041
 48.2716  6927.59  82.8161
 48.4696  7083.79  83.3433
 48.6676  6963.43  83.2154
 48.8656  7055.35  83.4794
 49.0636  7014.64  83.1994
 49.2616  6891.51  82.4906
 49.4596  6981.63  82.5971
 49.6576  6884.18  82.2424
 49.8556  6884.5  82.2684
 50.0536  6797.64  82.1857
 50.2516  6850.74  82.6364
 50.4496  6800.41  81.994
 50.6476  6841.32  81.9258
 50.8456  6780.69  81.6332
 51.0436  6724.48  81.74
 51.2416  6720.5  81.3879
 51.4396  6466.43  80.2297
 51.6376  6512.56  80.3402
 51.8356  6603.29  80.5292
 52.0336  6437.36  80.0263
 52.2316  6418.08  80.2536
 52.4296  6487.14  80.3715
 52.6276  6525.51  80.7206
 52.8256  6542.29  80.3962
 53.0236  6380.03  80.0256
 53.2216  6335.59  79.779
 53.4196  6184.23  78.7454
 53.6176  6207.3  79.3621
 53.8156  6341.2  79.8828
 54.0136  6442.06  80.6783
 54.2116  6286.31  79.3784
 54.4096  6359.64  79.8835
 54.6076  6263.12  79.6259
 54.8056  6207.47  79.059
 55.0036  6109.69  78.8218
 55.2016  6228.44  79.1365
 55.3996  6268.11  79.349
 55.5976  6237.58  79.3383
 55.7956  6224.71  79.0753
 55.9936  6194.8  79.0229
 56.1916  6261.5  79.4655
 56.3896  6222.83  79.2079
 56.5876  6141.65  79.2434
 56.7856  6127.39  78.6374
 56.9836  6116.68  78.359
 57.1816  6183.95  79.163
 57.3796  6123.04  78.5679
 57.5776  6125.27  78.5098
 57.7756  6225.57  79.7951
 57.9736  6082.96  78.5446
 58.1716  6189.46  79.4713
 58.3696  6135.74  78.8765
 58.5676  6265.67  79.1713
 58.7656  6061.09  78.5425
 58.9636  6229.52  79.6587
 59.1616  6182  79.4823
 59.3596  6243.52  79.1283
 59.5576  6325.06  79.701
 59.7556  6139.53  78.945
 59.9536  6352.83  80.201
 60.1516  6170.78  79.9014
 60.1996  0.0000000E+00  0.0000000E+00

File: 17_Da_f00076.xye
# /beamlines/bl04/projects/cycle2025-II/20250340211-lsimonelli/DATA/IS17_D/17_Da_f00076.xye : mythproc.py merge -s 0.006 -l 0.5 -f /beamlines/bl04/inhouse/ff/FlatField/ff_20Nov2024rod8mm60s_17keV.raw -b True -c true -o xye /beamlines/bl04/projects/cycle2025-II/20250340211-lsimonelli/DATA/IS17_D/17_Da_00076.dat
# IsMon = [6785253, 6787277, 6785219]  IsPos = [-1.4999, -2.4884, -3.4988]
# Wave = 0.4962  CalPath /beamlines/bl04/projects/cycle2025-II/20250340211-lsimonelli/DATA/Align/Si_Pos1_25keV_f00001.cal
# Date = 2025-09-24_14:42:23 Dt = 4.8000  Bin = 0.0060  <imon> = 6785916 +/- 962 (Min/Max) 6785219 / 6787277
# icurr 252.0352  mocoIn 1.7193E-05  mocoOut 0.8064  i15 7.10086e+06  imon 6.78592e+06  i7 7.3333  iEMpd_timer 4.8000  iEMpd_1 3.4176E-08  iEMpd_2 7.8306E-08  iEMpd_3 1.6148E-08  iEMpd_4 4.6979E-08  iEMhp_timer 4.8000  iEMhp_1 4.9244E-06  iEMhp_2 -2.5325E-08  iEMhp_3 -2.3557E-08  iEMhp_4 -2.1476E-08
#      9776
 1.7416  68765.3  262.319
 1.9396  44773.3  211.944
 2.1376  31435.1  177.583
 2.3356  28088.5  167.513
 2.5336  28111.5  168.171
 2.7316  24824  158.129
 2.9296  23731  154.772
 3.1276  22936.9  151.718
 3.3256  22585.8  150.227
 3.5236  24429.1  156.045
 3.7216  22532.2  151.088
 3.9196  22683.8  150.828
 4.1176  21969.9  148.21
 4.3156  23268.3  152.69
 4.5136  26541.9  162.054
 4.7116  27000.7  164.58
 4.9096  26312.8  161.913
 5.1076  25601.9  160.278
 5.3056  25992  161.23
 5.5036  25855.2  160.696
 5.7016  26197.4  161.728
 5.8996  26865.8  163.007
 6.0976  27682.7  166.889
 6.2956  28016.4  167.232
 6.4936  28650.1  168.309
 6.6916  29071.9  170.539
 6.8896  30092.6  173.367
 7.0876  30993.1  176.663
 7.2856  30900  175.463
 7.4836  31867.6  177.528
 7.6816  32411.3  179.567
 7.8796  33857.2  183.52
 8.0776  38635.1  197.061
 8.2756  38479.7  195.239
 8.4736  37867  193.491
 8.6716  37426.1  192.995
 8.8696  38170  195.413
 9.0676  37291.5  192.495
 9.2656  35404.8  188.255
 9.4636  34958.1  185.477
 9.6616  34207.2  184.237
 9.8596  32919.8  180.193
 10.0576  31170.6  175.999
 10.2556  29923.9  172.881
 10.4536  33991.5  183.831
 10.6516  37510.8  193.336
 10.8496  27835.7  165.967
 11.0476  27785.4  165.841
 11.2456  30887.2  175.43
 11.4436  26990.7  163.151
 11.6416  26096.1  160.785
 11.8396  24881  157.197
 12.0376  24462.6  155.514
 12.2356  26775.1  163.106
 12.4336  25176.1  157.707
 12.6316  23768.1  153.502
 12.8296  24463.1  155.367
 13.0276  24771  156.521
 13.2256  24443.3  155.847
 13.4236  24452.6  155.649
 13.6216  24328.3  155.266
 13.8196  25420.2  158.478
 14.0176  24368.3  155.45
 14.2156  23686.2  152.299
 14.4136  22235.9  148.93
 14.6116  22045.4  147.498
 14.8096  21263  144.848
 15.0076  20420.5  145.773
 15.2056  19866.9  139.609
 15.4036  19032  137.474
 15.6016  18735.3  135.478
 15.7996  18292  134.152
 15.9976  17325.3  133.496
 16.1956  16898.6  129.716
 16.3936  16446.6  127.15
 16.5916  16445.3  127.78
 16.7896  16315.6  127.327
 16.9876  16210.5  128.381
 17.1856  16192.3  126.654
 17.3836  15160.4  122.462
 17.5816  15142.2  122.869
 17.7796  15200.3  123.034
 17.9776  15391.1  124.62
 18.1756  16362.5  127.134
 18.3736  16264.5  127.282
 18.5716  14759.4  121.004
 18.7696  14730.7  120.456
 18.9676  14173.5  117.962
 19.1656  14213.5  118.685
 19.3636  14126.6  118.525
 19.5616  14089.5  118.539
 19.7596  14003.2  117.584
 19.9576  14738.1  120.687
 20.1556  13796.1  117.282
 20.3536  13637.4  115.977
 20.5516  13321.5  115.077
 20.7496  13035.7  113.778
 20.9476  13419.3  115.189
 21.1456  13797.9  117.135
 21.3436  13044.5  113.844
 21.5416  12968.8  113.518
 21.7396  12643  111.927
 21.9376  12874  112.71
 22.1356  13242.5  114.44
 22.3336  13005  113.705
 22.5316  12825.2  113.007
 22.7296  12504.9  110.943
 22.9276  12633.4  112.198
 23.1256  13210.2  114.199
 23.3236  12420.8  111.278
 23.5216  12639.5  111.921
 23.7196  12517.3  111.326
 23.9176  12436  110.715
 24.1156  12213.8  110.194
 24.3136  12034  110.167
 24.5116  11915.3  109.149
 24.7096  11872.7  108.77
 24.9076  11503.3  107.084
 25.1056  11405.2  107.1
 25.3036  11208.2  105.678
 25.5016  11322.9  106.258
 25.6996  11264.5  105.551
 25.8976  11352.6  106.415
 26.0956  11312.4  106.249
 26.2936  11123.3  104.995
 26.4916  11181.6  105.153
 26.6896  10748.2  103.392
 26.8876  10619.1  102.616
 27.0856  10823.4  103.659
 27.2836  10445.6  101.725
 27.4816  10589.5  102.347
 27.6796  10254.7  101.099
 27.8776  10654.3  102.904
 28.0756  10347.5  101.698
 28.2736  10387.1  101.473
 28.4716  10050.3  99.8548
 28.6696  10093.6  99.9236
 28.8676  9950  99.5522
 29.0656  9823.46  98.9017
 29.2636  9847.54  98.8125
 29.4616  9742.17  98.4685
 29.6596  9821.38  98.4303
 29.8576  9532.81  97.6579
 30.0556  9809  98.9309
 30.2536  9696.88  98.1632
 30.4516  9689.58  97.7843
 30.6496  9527.05  96.6844
 30.8476  9416.34  96.5639
 31.0456  9475.75  96.8251
 31.2436  9411.64  95.7645
 31.4416  9393.73  95.8411
 31.6396  9727.82  97.5854
 31.8376  9410.16  95.5195
 32.0356  9293.74  95.4991
 32.2336  9135.44  94.0676
 32.4316  9082.05  94.201
 32.6296  9032.42  93.778
 32.8276  9010.57  93.4351
 33.0256  8971.49  93.3174
 33.2236  8996.99  93.5923
 33.4216  8965.98  93.1249
 33.6196  8935  93.2557
 33.8176  9014.63  93.837
 34.0156  8721.37  91.9178
 34.2136  8779.27  92.259
 34.4116  8645.51  91.7045
 34.6096  8715.71  91.9516
 34.8076  8636.59  91.9502
 35.0056  8736.75  92.1655
 35.2036  8674.94  92.0424
 35.4016  8612.62  91.642
 35.5996  8430.73  90.698
 35.7976  8591.73  91.8434
 35.9956  8551.97  91.2702
 36.1936  8459.19  90.6494
 36.3916  8378.41  90.3816
 36.5896  8502.3  92.0406
 36.7876  8439.22  91.0916
 36.9856  8194.59  89.7923
 37.1836  8292.52  89.4242
 37.3816  8371.12  90.2193
 37.5796  8153.44  90.7659
 37.7776  8116.62  88.9296
 37.9756  8158.93  89.0466
 38.1736  8315.59  90.0928
 38.3716  8182.28  89.6441
 38.5696  8029.84  89.1798
 38.7676  7842.44  87.6362
 38.9656  7987.4  88.0806
 39.1636  7888.62  87.7999
 39.3616  8054.87  88.6462
 39.5596  7944.22  88.8823
 39.7576  7942.49  88.2524
 39.9556  8023.9  88.3406
 40.1536  8089.5  88.9068
 40.3516  8149.21  89.243
 40.5496  8164.18  89.5902
 40.7476  7972.05  88.5377
 40.9456  8088.99  88.9257
 41.1436  8062.37  88.5043
 41.3416  7984.41  88.4111
 41.5396  7941.48  87.9754
 41.7376  8011.24  88.6316
 41.9356  7936.6  88.0766
 42.1336  7971.85  88.4213
 42.3316  7976.83  88.6497
 42.5296  8004.3  88.3103
 42.7276  7984.55  88.4475
 42.9256  7850.41  87.5653
 43.1236  7864.92  87.7598
 43.3216  7884.29  87.6205
 43.5196  7793.78  87.1776
 43.7176  7766.19  87.4119
 43.9156  7655.33  86.6986
 44.1136  7556.9  85.6959
 44.3116  7659.79  86.294
 44.5096  7588.44  86.1973
 44.7076  7478.02  85.4971
 44.9056  7600.3  86.0666
 45.1036  7537.12  85.3341
 45.3016  7455.63  85.3723
 45.4996  7434.73  85.1907
 45.6976  7275.58  84.4498
 45.8956  7470.85  85.3822
 46.0936  7466.75  85.3609
 46.2916  7430.65  85.1356
 46.4896  7461.57  85.3435
 46.6876  7361.38  85.4852
 46.8856  7349.36  84.6759
 47.0836  7225.71  84.2099
 47.2816  7160.09  83.6977
 47.4796  7107.75  83.5046
 47.6776  7051.29  84.1064
 47.8756  7088.74  83.5024
 48.0736  7150.47  84.3288
 48.2716  6968.63  83.0655
 48.4696  7245.04  84.2918
 48.6676  6980.21  83.3159
 48.8656  7042.71  83.4113
 49.0636  7021.78  83.2361
 49.2616  6914.86  82.6371
 49.4596  6970.11  82.5327
 49.6576  6813.48  81.8238
 49.8556  6966.36  82.754
 50.0536  6958.45  83.1526
 50.2516  6857.58  82.6855
 50.4496  6835.03  82.201
 50.6476  6725.93  81.2316
 50.8456  6804.98  81.7913
 51.0436  6590.7  80.9312
 51.2416  6783.86  81.7843
 51.4396  6488.78  80.3694
 51.6376  6574.59  80.7302
 51.8356  6703.98  81.1498
 52.0336  6550.19  80.7234
 52.2316  6538.7  81.0017
 52.4296  6473.89  80.2917
 52.6276  6502.94  80.5922
 52.8256  6550.4  80.4342
 53.0236  6356.16  79.8678
 53.2216  6391.96  80.1212
 53.4196  6266.02  79.2548
 53.6176  6452.52  80.9076
 53.8156  6363.35  80.0138
 54.0136  6403.96  80.4516
 54.2116  6400.12  80.09
 54.4096  6339.98  79.7525
 54.6076  6294.57  79.8265
 54.8056  6322.57  79.7891
 55.0036  6289.47  79.9731
 55.2016  6255.93  79.3055
 55.3996  6246.43  79.2151
 55.5976  6313.01  79.8257
 55.7956  6266.03  79.3444
 55.9936  6178.86  78.9237
 56.1916  6240.55  79.3287
 56.3896  6235.08  79.2903
 56.5876  6153.81  79.3231
 56.7856  6277.33  79.5859
 56.9836  6097.77  78.2304
 57.1816  6115.82  78.7249
 57.3796  6215.98  79.1631
 57.5776  6235.93  79.2225
 57.7756  6131.22  79.1913
 57.9736  6164.87  79.0786
 58.1716  6178.97  79.4165
 58.3696  6117.18  78.7634
 58.5676  6195.52  78.7374
 58.7656  6138.42  79.0494
 58.9636  6229.7  79.6669
 59.1616  6078.15  78.8206
 59.3596  6310.27  79.5658
 59.5576  6268.84  79.3618
 59.7556  6177.43  79.2041
 59.9536  6275.38  79.7264
 60.1516  6143.28  79.739
 60.1996  0.0000000E+00  0.0000000E+00