Folder: echemistpy/docs/examples/opeando_xrd/IS17_D/Data/IS17_D (part 19)

File: 17_Da_f00054.xye
# /beamlines/bl04/projects/cycle2025-II/20250340211-lsimonelli/DATA/IS17_D/17_Da_f00054.xye : mythproc.py merge -s 0.006 -l 0.5 -f /beamlines/bl04/inhouse/ff/FlatField/ff_20Nov2024rod8mm60s_17keV.raw -b True -c true -o xye /beamlines/bl04/projects/cycle2025-II/20250340211-lsimonelli/DATA/IS17_D/17_Da_00054.dat
# IsMon = [6746153, 6751792, 6750693]  IsPos = [-1.4999, -2.4885, -3.4988]
# Wave = 0.4962  CalPath /beamlines/bl04/projects/cycle2025-II/20250340211-lsimonelli/DATA/Align/Si_Pos1_25keV_f00001.cal
# Date = 2025-09-24_08:35:26 Dt = 4.8000  Bin = 0.0060  <imon> = 6749546 +/- 2441 (Min/Max) 6746153 / 6751792
# icurr 248.9038  mocoIn 1.6991E-05  mocoOut 0.7973  i15 7.07005e+06  imon 6.74955e+06  i7 4.6667  iEMpd_timer 4.8000  iEMpd_1 3.4467E-08  iEMpd_2 7.8475E-08  iEMpd_3 1.6275E-08  iEMpd_4 4.6504E-08  iEMhp_timer 4.8000  iEMhp_1 4.8654E-06  iEMhp_2 -2.7191E-08  iEMhp_3 -2.5298E-08  iEMhp_4 -2.2126E-08
#      9776
 1.7416  69921  264.568
 1.9396  46096.5  215.09
 2.1376  32815.1  181.477
 2.3356  29438  171.524
 2.5336  27283.5  165.709
 2.7316  25924.9  161.607
 2.9296  24852.6  158.399
 3.1276  24217.2  155.916
 3.3256  23831.9  154.319
 3.5236  25683.9  160.167
 3.7216  23675.4  154.875
 3.9196  23063.5  152.083
 4.1176  22841.8  151.13
 4.3156  24221.3  155.783
 4.5136  26485.8  161.879
 4.7116  27543.2  166.227
 4.9096  26816  163.457
 5.1076  26427  162.847
 5.3056  26732.2  163.509
 5.5036  26635.6  163.191
 5.7016  26983.7  164.138
 5.8996  27737.9  165.618
 6.0976  28349.6  168.894
 6.2956  28823.9  169.618
 6.4936  29679.9  171.318
 6.6916  29768.7  172.569
 6.8896  30916  175.718
 7.0876  32016.8  179.558
 7.2856  31832.7  178.092
 7.4836  32292.4  178.705
 7.6816  33178.2  181.677
 7.8796  34555.3  185.385
 8.0776  36018.9  190.255
 8.2756  37855.8  193.64
 8.4736  38316.1  194.618
 8.6716  37772  193.867
 8.8696  37811.3  194.498
 9.0676  36733.4  191.058
 9.2656  35879.2  189.517
 9.4636  35369.3  186.552
 9.6616  34676  185.493
 9.8596  33386.3  181.476
 10.0576  31766.7  177.684
 10.2556  30525.4  174.623
 10.4536  29291.9  170.662
 10.6516  28408  168.257
 10.8496  27869.8  166.075
 11.0476  27072.1  163.642
 11.2456  26485.2  162.443
 11.4436  26348.7  161.194
 11.6416  27090.1  163.818
 11.8396  24857.8  157.134
 12.0376  25036.5  157.299
 12.2356  24397.6  155.737
 12.4336  24283  154.881
 12.6316  23979.9  154.192
 12.8296  24315.7  154.898
 13.0276  24927.1  157.008
 13.2256  24901.5  157.3
 13.4236  24857.9  156.934
 13.6216  24583  156.087
 13.8196  24577.6  155.828
 14.0176  24276.5  155.153
 14.2156  23908.5  153.012
 14.4136  22819.3  150.868
 14.6116  22317.8  148.409
 14.8096  21676.9  146.245
 15.0076  20416.9  145.771
 15.2056  20098.7  140.407
 15.4036  19149.6  137.883
 15.6016  19047.6  136.583
 15.7996  18338.8  134.309
 15.9976  17593.6  134.52
 16.1956  17079  130.411
 16.3936  16716.6  128.194
 16.5916  16548.8  128.183
 16.7896  16610.5  128.48
 16.9876  16440  129.282
 17.1856  16088.9  126.255
 17.3836  15635.8  124.37
 17.5816  15161.4  122.957
 17.7796  14965.9  122.092
 17.9776  14660.3  121.628
 18.1756  14892.4  121.296
 18.3736  14495.4  120.164
 18.5716  14379.1  119.432
 18.7696  14391.6  119.062
 18.9676  14213.3  118.134
 19.1656  14122  118.302
 19.3636  13960  117.823
 19.5616  13871.7  117.623
 19.7596  14004.2  117.59
 19.9576  14362.8  119.131
 20.1556  14869.6  121.754
 20.3536  14033.6  117.652
 20.5516  13630.1  116.399
 20.7496  13295.1  114.906
 20.9476  13183  114.174
 21.1456  13302  115.009
 21.3436  12894  113.187
 21.5416  13070.2  113.958
 21.7396  12837.3  112.784
 21.9376  12858.7  112.646
 22.1356  12850.9  112.73
 22.3336  12860.4  113.042
 22.5316  12666.8  112.289
 22.7296  12800.8  112.238
 22.9276  12681  112.394
 23.1256  12972.5  113.148
 23.3236  12795.6  112.955
 23.5216  12671.8  112.065
 23.7196  12481  111.167
 23.9176  12562.2  111.285
 24.1156  12264.9  110.426
 24.3136  11852.4  109.341
 24.5116  11934.4  109.243
 24.7096  11456.3  106.852
 24.9076  11407.3  106.656
 25.1056  11330.5  106.472
 25.3036  11256.8  105.905
 25.5016  11093  105.17
 25.6996  11217.9  105.341
 25.8976  11012.3  104.81
 26.0956  11030  104.91
 26.2936  10917.7  104.016
 26.4916  11161.5  105.059
 26.6896  10659.8  102.965
 26.8876  10625.7  102.657
 27.0856  10726.5  103.144
 27.2836  10367.9  101.345
 27.4816  10373.5  101.306
 27.6796  10363.4  101.635
 27.8776  10114.3  100.268
 28.0756  10289.9  101.412
 28.2736  10162.1  100.367
 28.4716  9996.14  99.59
 28.6696  10085.7  99.8857
 28.8676  9987.3  99.7449
 29.0656  9838.91  98.98
 29.2636  9901.86  99.0092
 29.4616  9683.85  98.1631
 29.6596  9803.85  98.3274
 29.8576  9606.78  98.0264
 30.0556  9613.39  97.9326
 30.2536  9734.62  98.3442
 30.4516  9518.16  96.917
 30.6496  9474.99  96.4207
 30.8476  9586.01  97.4348
 31.0456  9397.51  96.4352
 31.2436  9335.03  95.3853
 31.4416  9205.01  94.8869
 31.6396  9288.34  95.3616
 31.8376  9308.47  95.0075
 32.0356  9156.84  94.7942
 32.2336  9163  94.2215
 32.4316  9041.86  93.9909
 32.6296  8975.04  93.4175
 32.8276  9069.17  93.7478
 33.0256  8990.98  93.4178
 33.2236  8902.89  93.1103
 33.4216  8980.69  93.1993
 33.6196  8997.38  93.5791
 33.8176  8886.04  93.1655
 34.0156  8835.12  92.5096
 34.2136  8798.72  92.3651
 34.4116  8681.06  91.8935
 34.6096  8781.69  92.3022
 34.8076  8684.06  92.1989
 35.0056  8563.7  91.2488
 35.2036  8661.88  91.9824
 35.4016  8557.7  91.3462
 35.5996  8415.4  90.6181
 35.7976  8441.22  91.0383
 35.9956  8436.81  90.6548
 36.1936  8517.46  90.9476
 36.3916  8331.61  90.1341
 36.5896  8360.82  91.7409
 36.7876  8290.76  90.2792
 36.9856  8136.45  89.4621
 37.1836  8226.06  89.0562
 37.3816  8262.42  89.6212
 37.5796  8225.01  91.1591
 37.7776  8028.45  88.4575
 37.9756  8147.82  88.983
 38.1736  8177.73  89.3445
 38.3716  8186.55  89.6736
 38.5696  8056.73  89.3324
 38.7676  7843.77  87.6516
 38.9656  8034.37  88.3446
 39.1636  7880.82  87.7329
 39.3616  8038.83  88.5627
 39.5596  7871.77  88.487
 39.7576  7959.02  88.3427
 39.9556  7973.25  88.065
 40.1536  8030.55  88.5839
 40.3516  8142.33  89.2121
 40.5496  8023.25  88.599
 40.7476  7958.48  88.456
 40.9456  8022.56  88.5645
 41.1436  7994.8  88.1368
 41.3416  7969.97  88.3255
 41.5396  7879.73  87.6308
 41.7376  7933.1  88.2031
 41.9356  7884.15  87.787
 42.1336  7843.69  87.7111
 42.3316  7874.58  88.075
 42.5296  7950.64  88.0164
 42.7276  7942.05  88.2123
 42.9256  7827.6  87.4439
 43.1236  7724.33  86.9725
 43.3216  7739.49  86.9142
 43.5196  7683.06  86.5581
 43.7176  7769.21  87.4289
 43.9156  7629.65  86.5475
 44.1136  7556.48  85.6812
 44.3116  7672.85  86.3539
 44.5096  7508.19  85.7281
 44.7076  7566.15  85.9919
 44.9056  7514.23  85.5815
 45.1036  7602.44  85.7049
 45.3016  7457.92  85.3869
 45.4996  7499.28  85.5625
 45.6976  7374.69  85.0184
 45.8956  7374.23  84.836
 46.0936  7405.78  85.0243
 46.2916  7443.09  85.2143
 46.4896  7505.71  85.6069
 46.6876  7478.26  86.167
 46.8856  7250.32  84.0922
 47.0836  7199.77  84.0627
 47.2816  7126.22  83.5012
 47.4796  7156.77  83.7822
 47.6776  7087.98  84.3228
 47.8756  7113.49  83.6522
 48.0736  7174.19  84.4719
 48.2716  6997.4  83.2341
 48.4696  7165.92  83.8288
 48.6676  6977.44  83.2953
 48.8656  7037.73  83.389
 49.0636  7019.65  83.2353
 49.2616  6812.03  82.0113
 49.4596  6935.83  82.3342
 49.6576  6892.31  82.3013
 49.8556  6857.02  82.1028
 50.0536  6937.81  83.0256
 50.2516  6831.17  82.5001
 50.4496  6871.18  82.4175
 50.6476  6861.73  82.0473
 50.8456  6828.67  81.9216
 51.0436  6630.66  81.1676
 51.2416  6683.4  81.1699
 51.4396  6572.35  80.8769
 51.6376  6574.85  80.7236
 51.8356  6625.05  80.6608
 52.0336  6363.34  79.5682
 52.2316  6415.9  80.2353
 52.4296  6531.12  80.6463
 52.6276  6518.54  80.6801
 52.8256  6534.21  80.3252
 53.0236  6400.69  80.1507
 53.2216  6327.36  79.7211
 53.4196  6351.02  79.7971
 53.6176  6352.15  80.2808
 53.8156  6362.7  80.0219
 54.0136  6395.96  80.4029
 54.2116  6373.08  79.923
 54.4096  6285.01  79.4114
 54.6076  6262.74  79.6206
 54.8056  6250.97  79.3358
 55.0036  6236.54  79.6359
 55.2016  6350.22  79.8999
 55.3996  6296.19  79.5241
 55.5976  6257.09  79.4712
 55.7956  6298.91  79.5504
 55.9936  6189.16  78.9928
 56.1916  6260.44  79.4595
 56.3896  6308.53  79.7551
 56.5876  6163.9  79.3865
 56.7856  6172.58  78.9321
 56.9836  6063.24  78.0076
 57.1816  6216.18  79.3706
 57.3796  6150.78  78.7423
 57.5776  6274.52  79.4598
 57.7756  6035.38  78.5595
 57.9736  6199.99  79.3044
 58.1716  6179.46  79.4151
 58.3696  6099.54  78.6313
 58.5676  6225.64  78.9178
 58.7656  6168.11  79.2323
 58.9636  6200.03  79.4714
 59.1616  6203.66  79.6132
 59.3596  6211.86  78.9322
 59.5576  6300.97  79.5541
 59.7556  6190.52  79.2771
 59.9536  6304.27  79.8989
 60.1516  6156.1  79.8112
 60.1996  0.0000000E+00  0.0000000E+00

File: 17_Da_f00055.xye
# /beamlines/bl04/projects/cycle2025-II/20250340211-lsimonelli/DATA/IS17_D/17_Da_f00055.xye : mythproc.py merge -s 0.006 -l 0.5 -f /beamlines/bl04/inhouse/ff/FlatField/ff_20Nov2024rod8mm60s_17keV.raw -b True -c true -o xye /beamlines/bl04/projects/cycle2025-II/20250340211-lsimonelli/DATA/IS17_D/17_Da_00055.dat
# IsMon = [6759283, 6757959, 6759241]  IsPos = [-1.4999, -2.4883, -3.4988]
# Wave = 0.4962  CalPath /beamlines/bl04/projects/cycle2025-II/20250340211-lsimonelli/DATA/Align/Si_Pos1_25keV_f00001.cal
# Date = 2025-09-24_08:51:56 Dt = 4.8000  Bin = 0.0060  <imon> = 6758828 +/- 614 (Min/Max) 6757959 / 6759283
# icurr 249.7808  mocoIn 1.7048E-05  mocoOut 0.7999  i15 7.07569e+06  imon 6.75883e+06  i7 7.6667  iEMpd_timer 4.8000  iEMpd_1 3.6837E-08  iEMpd_2 7.9277E-08  iEMpd_3 1.8274E-08  iEMpd_4 4.8393E-08  iEMhp_timer 4.8000  iEMhp_1 4.8800E-06  iEMhp_2 -2.5162E-08  iEMhp_3 -2.6151E-08  iEMhp_4 -2.2080E-08
#      9776
 1.7416  70461.8  265.514
 1.9396  46180.4  215.224
 2.1376  32801.1  181.386
 2.3356  29501.3  171.66
 2.5336  27388.2  165.98
 2.7316  25702  160.909
 2.9296  24737.7  158.028
 3.1276  24226.2  155.929
 3.3256  23971.2  154.793
 3.5236  25720.7  160.131
 3.7216  23701.6  154.958
 3.9196  23025  151.961
 4.1176  23012.5  151.686
 4.3156  24186.9  155.672
 4.5136  26491.9  161.908
 4.7116  27733.2  166.8
 4.9096  26824.9  163.483
 5.1076  26583.9  163.32
 5.3056  27015.6  164.372
 5.5036  26787.5  163.573
 5.7016  26996.8  164.177
 5.8996  27759.8  165.689
 6.0976  28573.4  169.545
 6.2956  29089.3  170.404
 6.4936  29690.3  171.346
 6.6916  29998.7  173.235
 6.8896  30966.9  175.867
 7.0876  31883.2  179.18
 7.2856  31826.4  178.073
 7.4836  32291  178.788
 7.6816  33037.2  181.289
 7.8796  34502.7  185.259
 8.0776  35966.5  190.141
 8.2756  38025.1  194.094
 8.4736  38623.1  195.417
 8.6716  37781.3  193.925
 8.8696  37519.2  193.715
 9.0676  37242  192.354
 9.2656  36074.3  190.004
 9.4636  35725.4  187.483
 9.6616  34883.7  186.042
 9.8596  33270  181.156
 10.0576  31754.4  177.657
 10.2556  30633.7  174.928
 10.4536  29427.9  171.05
 10.6516  28606.9  168.841
 10.8496  27823.6  165.929
 11.0476  27037.3  163.594
 11.2456  26510.7  162.526
 11.4436  26699.6  162.27
 11.6416  27038.1  163.656
 11.8396  25075.8  157.809
 12.0376  24998.5  157.206
 12.2356  24473.6  155.953
 12.4336  24317.4  154.996
 12.6316  24048.4  154.394
 12.8296  24395.2  155.151
 13.0276  24884.9  156.883
 13.2256  24946.6  157.445
 13.4236  24878.8  156.994
 13.6216  24771  156.671
 13.8196  24696  156.203
 14.0176  24231.4  155.013
 14.2156  23847.3  152.817
 14.4136  22664.3  150.352
 14.6116  22219.4  148.082
 14.8096  21689.7  146.291
 15.0076  20519.9  146.123
 15.2056  20080.1  140.359
 15.4036  19233.6  138.196
 15.6016  18710.1  135.395
 15.7996  18240.9  133.961
 15.9976  17589.4  134.484
 16.1956  16986.3  130.041
 16.3936  16822.9  128.586
 16.5916  16588.9  128.324
 16.7896  16627.7  128.533
 16.9876  16476.1  129.428
 17.1856  16266.2  126.955
 17.3836  15724.9  124.724
 17.5816  15301.2  123.521
 17.7796  14871.1  121.701
 17.9776  14818.2  122.272
 18.1756  14884.4  121.257
 18.3736  14606.8  120.63
 18.5716  14610.3  120.386
 18.7696  14485.4  119.445
 18.9676  14256.1  118.299
 19.1656  14253.5  118.854
 19.3636  14203.7  118.854
 19.5616  13934.3  117.888
 19.7596  14069.6  117.854
 19.9576  14483.7  119.636
 20.1556  14716.4  121.132
 20.3536  13933  117.228
 20.5516  13584.8  116.208
 20.7496  13418.8  115.438
 20.9476  13089.2  113.762
 21.1456  13362  115.272
 21.3436  13146.7  114.287
 21.5416  12982.7  113.569
 21.7396  12784.9  112.554
 21.9376  13020.3  113.356
 22.1356  12901.6  112.957
 22.3336  12700.8  112.372
 22.5316  12851.5  113.123
 22.7296  12826.2  112.358
 22.9276  12812.5  112.993
 23.1256  12933.8  112.997
 23.3236  12840.3  113.137
 23.5216  12620.3  111.825
 23.7196  12565.2  111.533
 23.9176  12414.9  110.613
 24.1156  12339.1  110.749
 24.3136  11895.3  109.535
 24.5116  11979.8  109.448
 24.7096  11637  107.689
 24.9076  11511.4  107.128
 25.1056  11206  106.164
 25.3036  11206.9  105.677
 25.5016  11210.9  105.732
 25.6996  11183.2  105.182
 25.8976  11120.2  105.31
 26.0956  11057.2  105.037
 26.2936  11010.1  104.466
 26.4916  11141.1  104.961
 26.6896  10857  103.912
 26.8876  10775.6  103.368
 27.0856  10737.8  103.244
 27.2836  10432.5  101.722
 27.4816  10338  101.135
 27.6796  10311.8  101.38
 27.8776  10300.1  101.18
 28.0756  10264.7  101.293
 28.2736  10253  100.815
 28.4716  9984.48  99.531
 28.6696  9977.67  99.3429
 28.8676  9883.9  99.2238
 29.0656  9845.72  99.0204
 29.2636  9866.2  98.9032
 29.4616  9664.98  98.0803
 29.6596  9717.29  97.9114
 29.8576  9707.76  98.5543
 30.0556  9614.12  97.947
 30.2536  9659.26  97.9752
 30.4516  9529.3  96.9614
 30.6496  9644.89  97.2747
 30.8476  9638.96  97.6892
 31.0456  9427.66  96.5684
 31.2436  9556.99  96.4945
 31.4416  9311.29  95.4308
 31.6396  9395.1  95.9065
 31.8376  9252.55  94.7205
 32.0356  9253.68  95.2917
 32.2336  9140.37  94.0938
 32.4316  9058  94.0353
 32.6296  8981.06  93.5181
 32.8276  9156.66  94.194
 33.0256  9037.79  93.6544
 33.2236  8868.18  92.9224
 33.4216  9106.23  93.8411
 33.6196  9022.52  93.7152
 33.8176  8924.94  93.3684
 34.0156  8898.92  92.845
 34.2136  8832.32  92.5366
 34.4116  8708.82  92.1518
 34.6096  8604.9  91.3695
 34.8076  8626.41  91.8958
 35.0056  8685.93  91.8929
 35.2036  8622.38  91.7694
 35.4016  8644.85  91.8146
 35.5996  8501.64  91.082
 35.7976  8445.11  91.0595
 35.9956  8524.16  91.127
 36.1936  8414.09  90.4005
 36.3916  8389.34  90.3933
 36.5896  8331.86  91.1082
 36.7876  8328.5  90.4994
 36.9856  8359.96  90.6974
 37.1836  8303.96  89.4886
 37.3816  8321.98  89.9515
 37.5796  8177.38  90.8896
 37.7776  8110.23  88.8853
 37.9756  8136.58  88.9179
 38.1736  8304.02  90.024
 38.3716  8123.18  89.3162
 38.5696  8163.75  89.9225
 38.7676  7844.62  87.6552
 38.9656  7962.27  87.9458
 39.1636  7950.7  88.144
 39.3616  8045.45  88.6043
 39.5596  7939.13  88.8665
 39.7576  7919.81  88.1252
 39.9556  7993.79  88.1788
 40.1536  8033.95  88.5953
 40.3516  8116.97  89.0672
 40.5496  8098.08  89.2264
 40.7476  8071.01  89.0879
 40.9456  8130.58  89.1582
 41.1436  8102.59  88.7227
 41.3416  7966.4  88.278
 41.5396  8039.43  88.4571
 41.7376  7896.76  87.9941
 41.9356  7954.57  88.1789
 42.1336  7979.13  88.4619
 42.3316  7989.78  88.7234
 42.5296  7934.79  87.9298
 42.7276  7881.72  87.8748
 42.9256  7888.28  87.7758
 43.1236  7723.35  86.9671
 43.3216  7847.08  87.4068
 43.5196  7744.21  86.8991
 43.7176  7781.22  87.5016
 43.9156  7648.79  86.6674
 44.1136  7658.23  86.2723
 44.3116  7708.3  86.5634
 44.5096  7557.83  86.0222
 44.7076  7534.69  85.8224
 44.9056  7585.88  85.9788
 45.1036  7508.13  85.1599
 45.3016  7441.6  85.2812
 45.4996  7329.04  84.5756
 45.6976  7319.36  84.6948
 45.8956  7380.85  84.8686
 46.0936  7436.81  85.1377
 46.2916  7386.82  84.8894
 46.4896  7537.95  85.785
 46.6876  7424.93  85.848
 46.8856  7186.01  83.7141
 47.0836  7244.1  84.3027
 47.2816  7180.94  83.8246
 47.4796  7282.72  84.5262
 47.6776  7001.52  83.803
 47.8756  7141.7  83.8217
 48.0736  7080.01  83.9099
 48.2716  6950.44  82.9875
 48.4696  7085.17  83.3721
 48.6676  7074.74  83.8782
 48.8656  7050.4  83.4572
 49.0636  7015.02  83.1911
 49.2616  6861.42  82.2079
 49.4596  6883.86  82.1681
 49.6576  6899.89  82.3397
 49.8556  6885.85  82.2761
 50.0536  6967.12  83.2069
 50.2516  6881.99  82.832
 50.4496  6862.25  82.3685
 50.6476  6921.82  82.4075
 50.8456  6794.04  81.727
 51.0436  6737.64  81.8318
 51.2416  6647.01  80.9545
 51.4396  6532.19  80.6392
 51.6376  6562.27  80.6587
 51.8356  6575.15  80.3658
 52.0336  6612.94  81.1047
 52.2316  6575.13  81.2226
 52.4296  6580.33  80.9508
 52.6276  6524.9  80.7195
 52.8256  6557.37  80.4626
 53.0236  6424.52  80.2992
 53.2216  6374.17  80.0153
 53.4196  6364.57  79.8805
 53.6176  6349.68  80.2614
 53.8156  6432.53  80.4503
 54.0136  6448.39  80.7353
 54.2116  6386.11  79.9991
 54.4096  6365.77  79.9235
 54.6076  6272.07  79.6794
 54.8056  6240.56  79.2684
 55.0036  6303.47  80.0601
 55.2016  6278.48  79.4386
 55.3996  6280.91  79.4355
 55.5976  6345.06  80.0287
 55.7956  6345.6  79.8421
 55.9936  6262.12  79.4506
 56.1916  6228.3  79.2552
 56.3896  6285.36  79.6101
 56.5876  6133.77  79.1887
 56.7856  6156.77  78.8279
 56.9836  6142.08  78.5133
 57.1816  6215.97  79.3649
 57.3796  6206.27  79.1026
 57.5776  6249.25  79.3044
 57.7756  6097.6  78.9686
 57.9736  6165.23  79.0777
 58.1716  6160.47  79.294
 58.3696  6055.62  78.3659
 58.5676  6236.1  79.0037
 58.7656  6146.55  79.1059
 58.9636  6327.47  80.2922
 59.1616  6213.47  79.6999
 59.3596  6328.12  79.6713
 59.5576  6208.09  78.9698
 59.7556  6260.12  79.7259
 59.9536  6332.6  80.0826
 60.1516  6140.34  79.7134
 60.1996  0.0000000E+00  0.0000000E+00