Folder: echemistpy/docs/examples/opeando_xrd/IS17_D/Data/IS17_D (part 35)

File: 17_Da_f00090.xye
# /beamlines/bl04/projects/cycle2025-II/20250340211-lsimonelli/DATA/IS17_D/17_Da_f00090.xye : mythproc.py merge -s 0.006 -l 0.5 -f /beamlines/bl04/inhouse/ff/FlatField/ff_20Nov2024rod8mm60s_17keV.raw -b True -c true -o xye /beamlines/bl04/projects/cycle2025-II/20250340211-lsimonelli/DATA/IS17_D/17_Da_00090.dat
# IsMon = [6770841, 6792112, 6797971]  IsPos = [-1.4999, -2.4884, -3.4988]
# Wave = 0.4962  CalPath /beamlines/bl04/projects/cycle2025-II/20250340211-lsimonelli/DATA/Align/Si_Pos1_25keV_f00001.cal
# Date = 2025-09-24_18:37:05 Dt = 4.8000  Bin = 0.0060  <imon> = 6786975 +/- 11656 (Min/Max) 6770841 / 6797971
# icurr 252.0160  mocoIn 1.7058E-05  mocoOut 0.8057  i15 7.10485e+06  imon 6.78697e+06  i7 6.0000  iEMpd_timer 4.8000  iEMpd_1 3.4510E-08  iEMpd_2 7.7362E-08  iEMpd_3 1.5878E-08  iEMpd_4 4.7251E-08  iEMhp_timer 4.8000  iEMhp_1 4.9309E-06  iEMhp_2 -2.4770E-08  iEMhp_3 -2.4063E-08  iEMhp_4 -2.1106E-08
#      9776
 1.7416  70219.7  265.382
 1.9396  45653  214.257
 2.1376  32329.8  180.3
 2.3356  28904.3  170.122
 2.5336  26798.6  164.385
 2.7316  25218.2  159.45
 2.9296  24195.5  156.348
 3.1276  23748.9  154.489
 3.3256  23397  152.93
 3.5236  25442.8  159.281
 3.7216  23385.1  153.922
 3.9196  22902.6  151.559
 4.1176  22665.2  150.582
 4.3156  24162  155.558
 4.5136  26414  161.651
 4.7116  27706.5  166.718
 4.9096  26931  163.801
 5.1076  26591.9  163.395
 5.3056  27017  164.346
 5.5036  26897.8  163.891
 5.7016  27561.2  165.884
 5.8996  27871.6  166.022
 6.0976  28831.7  170.362
 6.2956  29157.5  170.565
 6.4936  29786.4  171.616
 6.6916  29915.1  172.994
 6.8896  30626  174.894
 7.0876  31688.4  178.631
 7.2856  31602  177.443
 7.4836  32111  178.199
 7.6816  32893  180.895
 7.8796  34216  184.385
 8.0776  35630.4  189.134
 8.2756  37569.3  192.797
 8.4736  38114.2  194.017
 8.6716  37273.2  192.509
 8.8696  37432.7  193.528
 9.0676  36307.7  189.964
 9.2656  35391.8  188.232
 9.4636  35106.9  185.829
 9.6616  34228.7  184.263
 9.8596  32882.8  180.169
 10.0576  31254.5  176.274
 10.2556  30159.5  173.635
 10.4536  29508.7  171.353
 10.6516  28884.5  169.718
 10.8496  27929  166.248
 11.0476  27301.1  164.389
 11.2456  26492.6  162.452
 11.4436  26860.8  162.763
 11.6416  26295.8  161.395
 11.8396  24597.2  156.34
 12.0376  24865.3  156.753
 12.2356  24154.3  154.908
 12.4336  24328.8  155.023
 12.6316  23758  153.51
 12.8296  24204.6  154.542
 13.0276  24639.2  156.061
 13.2256  24671  156.574
 13.4236  24618.7  156.165
 13.6216  24426.9  155.62
 13.8196  24596.4  155.882
 14.0176  23997.4  154.222
 14.2156  23425.7  151.455
 14.4136  22521.3  149.879
 14.6116  22163.5  147.893
 14.8096  21441.4  145.421
 15.0076  20270.2  145.249
 15.2056  20060.7  140.208
 15.4036  19087.4  137.593
 15.6016  18803.8  135.65
 15.7996  18224.8  133.814
 15.9976  17496.3  134.128
 16.1956  16885.4  129.683
 16.3936  16470.2  127.258
 16.5916  16503.6  128.022
 16.7896  16551  128.264
 16.9876  16238.2  128.512
 17.1856  15918.9  125.604
 17.3836  15588.7  124.221
 17.5816  15391.9  123.923
 17.7796  15096  122.666
 17.9776  14952.4  122.836
 18.1756  15186.3  122.478
 18.3736  15001.5  122.239
 18.5716  14685  120.697
 18.7696  14644.6  120.098
 18.9676  14141.5  117.86
 19.1656  14239.6  118.765
 19.3636  14130.8  118.531
 19.5616  13983.5  118.094
 19.7596  14135.3  118.164
 19.9576  14451.9  119.506
 20.1556  14222  119.049
 20.3536  13638.7  115.978
 20.5516  13383.1  115.345
 20.7496  13207.1  114.518
 20.9476  13089.5  113.799
 21.1456  13290.1  114.94
 21.3436  13165.1  114.375
 21.5416  12843.2  112.96
 21.7396  12882.9  112.982
 21.9376  12860.6  112.633
 22.1356  12829.6  112.631
 22.3336  12873  113.07
 22.5316  12713.2  112.448
 22.7296  12858.1  112.436
 22.9276  12783.8  112.799
 23.1256  12952.2  113.002
 23.3236  12618.9  112.169
 23.5216  12627.5  111.882
 23.7196  12462  111.099
 23.9176  12274.6  110.039
 24.1156  12158.5  109.956
 24.3136  11794.2  109.108
 24.5116  11931.5  109.27
 24.7096  11602.2  107.57
 24.9076  11410.6  106.731
 25.1056  11152.3  105.951
 25.3036  11217.5  105.716
 25.5016  11183.5  105.597
 25.6996  11109.2  104.831
 25.8976  10964.2  104.609
 26.0956  11102.7  105.232
 26.2936  11035.9  104.572
 26.4916  11113.7  104.833
 26.6896  10658.9  102.96
 26.8876  10613.6  102.622
 27.0856  10682.6  102.956
 27.2836  10427.8  101.635
 27.4816  10296.8  100.929
 27.6796  10361.8  101.626
 27.8776  10215.7  100.791
 28.0756  10262.1  101.256
 28.2736  10174.9  100.432
 28.4716  9836.7  98.792
 28.6696  9944.2  99.1798
 28.8676  9888.48  99.2496
 29.0656  9757.4  98.5684
 29.2636  9797.29  98.5764
 29.4616  9429.57  96.8196
 29.6596  9809.28  98.3132
 29.8576  9697.58  98.4426
 30.0556  9620.45  97.9174
 30.2536  9759.26  98.4195
 30.4516  9569.4  97.1887
 30.6496  9481.85  96.4668
 30.8476  9420.64  96.5996
 31.0456  9433.84  96.6581
 31.2436  9358  95.5377
 31.4416  9249.59  95.1432
 31.6396  9332.9  95.6258
 31.8376  9272.78  94.8669
 32.0356  9187.38  94.9917
 32.2336  9019.87  93.5367
 32.4316  9066.52  94.1108
 32.6296  9012.21  93.6657
 32.8276  9077.15  93.7759
 33.0256  8987.81  93.4025
 33.2236  8842.92  92.8134
 33.4216  8973.99  93.1497
 33.6196  8955.47  93.3542
 33.8176  8962.53  93.5557
 34.0156  8754.87  92.0924
 34.2136  8766.49  92.2163
 34.4116  8650.4  91.7121
 34.6096  8616.13  91.4168
 34.8076  8595.87  91.7209
 35.0056  8670.26  91.8057
 35.2036  8586.56  91.5947
 35.4016  8572.4  91.4033
 35.5996  8438.49  90.7426
 35.7976  8415.88  90.8968
 35.9956  8491.59  90.9452
 36.1936  8492.41  90.8219
 36.3916  8305.01  89.9792
 36.5896  8275.01  90.8083
 36.7876  8328.5  90.4381
 36.9856  8286.13  90.2393
 37.1836  8224.29  89.0056
 37.3816  8272.98  89.6268
 37.5796  8161.63  90.8028
 37.7776  8164.55  89.2321
 37.9756  8044.86  88.4489
 38.1736  8211.91  89.5456
 38.3716  8026.37  88.8019
 38.5696  7999.54  89.0093
 38.7676  7845.31  87.6925
 38.9656  7972.33  88.0345
 39.1636  7919.51  88.0223
 39.3616  7911.61  87.8693
 39.5596  7887.49  88.5662
 39.7576  7806.12  87.4895
 39.9556  7939.37  87.8749
 40.1536  7982.2  88.3188
 40.3516  7972.93  88.2756
 40.5496  7971.62  88.5199
 40.7476  8026.41  88.836
 40.9456  8027.31  88.5864
 41.1436  7932.03  87.8085
 41.3416  8012.4  88.5458
 41.5396  7959.06  88.0812
 41.7376  7917.81  88.1104
 41.9356  7862.64  87.6653
 42.1336  7951.06  88.3326
 42.3316  7811.55  87.706
 42.5296  7859.97  87.5091
 42.7276  7832.76  87.6015
 42.9256  7836.58  87.4921
 43.1236  7755.27  87.1465
 43.3216  7769.18  86.9766
 43.5196  7748.89  86.9389
 43.7176  7704.86  87.0653
 43.9156  7565.38  86.1389
 44.1136  7575.3  85.7504
 44.3116  7719.24  86.57
 44.5096  7666.6  86.5918
 44.7076  7559.17  85.9119
 44.9056  7469.07  85.3253
 45.1036  7436.16  84.7731
 45.3016  7501  85.639
 45.4996  7309.56  84.4816
 45.6976  7262.03  84.3526
 45.8956  7377.3  84.8834
 46.0936  7352.11  84.7558
 46.2916  7366.93  84.8044
 46.4896  7339.14  84.683
 46.6876  7344.74  85.4255
 46.8856  7168.88  83.633
 47.0836  7167.35  83.8945
 47.2816  7078.59  83.217
 47.4796  7098.35  83.4425
 47.6776  7104.55  84.4256
 47.8756  7004.33  83.0121
 48.0736  7135.97  84.251
 48.2716  6917.63  82.7458
 48.4696  6948.42  82.5504
 48.6676  6857.54  82.5805
 48.8656  6888.06  82.4958
 49.0636  6949.23  82.8299
 49.2616  6834.94  82.1377
 49.4596  6911.98  82.1911
 49.6576  6856.45  82.0738
 49.8556  6896.27  82.3381
 50.0536  6853.17  82.5233
 50.2516  6750.67  82.0384
 50.4496  6715.6  81.473
 50.6476  6722.86  81.2154
 50.8456  6711.81  81.2275
 51.0436  6551.03  80.6413
 51.2416  6598.05  80.6047
 51.4396  6462.12  80.1637
 51.6376  6512.69  80.3082
 51.8356  6616.83  80.5838
 52.0336  6352.57  79.5101
 52.2316  6378.58  80.0125
 52.4296  6600.61  81.0569
 52.6276  6453.44  80.2584
 52.8256  6491.77  80.0906
 53.0236  6401.39  80.1862
 53.2216  6345.09  79.8625
 53.4196  6067.66  78.0271
 53.6176  6179.97  79.213
 53.8156  6263.66  79.4144
 54.0136  6379.62  80.2852
 54.2116  6236.42  79.0804
 54.4096  6350.68  79.8193
 54.6076  6228.87  79.4084
 54.8056  6262.46  79.403
 55.0036  6125.77  78.9153
 55.2016  6194.06  78.9346
 55.3996  6153.8  78.6071
 55.5976  6146.73  78.763
 55.7956  6242.27  79.1807
 55.9936  6171.98  78.8996
 56.1916  6191.19  79.0196
 56.3896  6108.83  78.4679
 56.5876  6087.56  78.8873
 56.7856  6115.62  78.5548
 56.9836  6009.43  77.6824
 57.1816  6119.95  78.7727
 57.3796  6221.47  79.1906
 57.5776  6129.9  78.5381
 57.7756  6159.92  79.3717
 57.9736  6103.14  78.6798
 58.1716  6174.35  79.3663
 58.3696  6116.74  78.7233
 58.5676  6087.52  78.0067
 58.7656  6153.26  79.0988
 58.9636  6331.44  80.2716
 59.1616  6122.25  79.0414
 59.3596  6251.17  79.1243
 59.5576  6192.47  78.809
 59.7556  6178.6  79.1435
 59.9536  6240.92  79.4389
 60.1516  6093.16  79.3447
 60.1996  0.0000000E+00  0.0000000E+00

File: 17_Da_f00091.xye
# /beamlines/bl04/projects/cycle2025-II/20250340211-lsimonelli/DATA/IS17_D/17_Da_f00091.xye : mythproc.py merge -s 0.006 -l 0.5 -f /beamlines/bl04/inhouse/ff/FlatField/ff_20Nov2024rod8mm60s_17keV.raw -b True -c true -o xye /beamlines/bl04/projects/cycle2025-II/20250340211-lsimonelli/DATA/IS17_D/17_Da_00091.dat
# IsMon = [6747177, 6750257, 6750069]  IsPos = [-1.5000, -2.4884, -3.4988]
# Wave = 0.4962  CalPath /beamlines/bl04/projects/cycle2025-II/20250340211-lsimonelli/DATA/Align/Si_Pos1_25keV_f00001.cal
# Date = 2025-09-24_18:53:41 Dt = 4.8000  Bin = 0.0060  <imon> = 6749168 +/- 1410 (Min/Max) 6747177 / 6750257
# icurr 249.4249  mocoIn 1.7011E-05  mocoOut 0.7980  i15 7.06789e+06  imon 6.74917e+06  i7 4.6667  iEMpd_timer 4.8000  iEMpd_1 3.4786E-08  iEMpd_2 7.7444E-08  iEMpd_3 1.6656E-08  iEMpd_4 4.7438E-08  iEMhp_timer 4.8000  iEMhp_1 4.8713E-06  iEMhp_2 -2.7464E-08  iEMhp_3 -2.4833E-08  iEMhp_4 -2.1973E-08
#      9776
 1.7416  69463.6  263.674
 1.9396  45386.6  213.404
 2.1376  32015.8  179.233
 2.3356  28701.9  169.349
 2.5336  26653.3  163.768
 2.7316  25207.6  159.358
 2.9296  24002.1  155.664
 3.1276  23586.1  153.868
 3.3256  23343.6  152.735
 3.5236  25253.3  158.662
 3.7216  23132.7  153.085
 3.9196  22612.3  150.59
 4.1176  22594.7  150.307
 4.3156  23688.4  154.064
 4.5136  26256.9  161.182
 4.7116  27200.1  165.183
 4.9096  26608.3  162.821
 5.1076  26437.6  162.875
 5.3056  26836.7  163.827
 5.5036  26486.7  162.645
 5.7016  26901.2  163.887
 5.8996  27762.8  165.694
 6.0976  28226.5  168.526
 6.2956  28673  169.179
 6.4936  29422.5  170.57
 6.6916  29641.9  172.202
 6.8896  30228.9  173.753
 7.0876  31533.4  178.117
 7.2856  31277.7  176.533
 7.4836  31651.8  176.92
 7.6816  32407.9  179.556
 7.8796  33800.8  183.358
 8.0776  34999.1  187.552
 8.2756  37020.9  191.5
 8.4736  37505.1  192.556
 8.6716  36969  191.81
 8.8696  36815  191.908
 9.0676  35770.6  188.525
 9.2656  34849.8  186.766
 9.4636  34480.6  184.197
 9.6616  34017.2  183.721
 9.8596  32466.3  178.956
 10.0576  30926  175.311
 10.2556  29982.2  173.059
 10.4536  28969.9  169.72
 10.6516  28686.5  169.077
 10.8496  27662.6  165.451
 11.0476  26789  162.84
 11.2456  26377.3  162.113
 11.4436  26519.9  161.718
 11.6416  26082.9  160.742
 11.8396  24524.6  156.072
 12.0376  24499.4  155.626
 12.2356  24033.9  154.544
 12.4336  23759.5  153.208
 12.6316  23508  152.663
 12.8296  23861.2  153.443
 13.0276  24379.1  155.272
 13.2256  24301.4  155.391
 13.4236  24268.1  155.058
 13.6216  24034.4  154.33
 13.8196  24076.5  154.229
 14.0176  23860.8  153.818
 14.2156  23203.5  150.742
 14.4136  22059  148.339
 14.6116  21850.1  146.844
 14.8096  21239  144.757
 15.0076  20111.8  144.661
 15.2056  19807.4  139.393
 15.4036  18995.5  137.337
 15.6016  18504.3  134.633
 15.7996  18160.1  133.649
 15.9976  17258.8  133.223
 16.1956  16780.9  129.262
 16.3936  16548.8  127.543
 16.5916  16152.9  126.636
 16.7896  16412.2  127.708
 16.9876  16106.1  127.972
 17.1856  15860.7  125.357
 17.3836  15505.5  123.84
 17.5816  14941.1  122.062
 17.7796  14865  121.682
 17.9776  14781.1  122.123
 18.1756  15032.8  121.868
 18.3736  14886.6  121.776
 18.5716  14396.7  119.505
 18.7696  14383.7  119.027
 18.9676  14043.8  117.423
 19.1656  14019.6  117.864
 19.3636  13907.3  117.603
 19.5616  13833.3  117.459
 19.7596  14070.2  117.866
 19.9576  14305.7  118.9
 20.1556  14122.8  118.66
 20.3536  13595.8  115.808
 20.5516  13193  114.519
 20.7496  12990.4  113.496
 20.9476  12968.3  113.238
 21.1456  13160.8  114.399
 21.3436  12783.5  112.705
 21.5416  12675.6  112.228
 21.7396  12581.5  111.654
 21.9376  12707.6  111.981
 22.1356  12562.7  111.616
 22.3336  12578.8  111.82
 22.5316  12595.4  111.974
 22.7296  12667.4  111.652
 22.9276  12566.4  111.89
 23.1256  12838.4  112.57
 23.3236  12435.6  111.352
 23.5216  12369.8  110.718
 23.7196  12337.6  110.74
 23.9176  12198.3  109.656
 24.1156  12274.2  110.466
 24.3136  11840.7  109.287
 24.5116  11642.3  107.898
 24.7096  11456.3  106.852
 24.9076  11268.6  105.996
 25.1056  11015.4  105.258
 25.3036  11012.5  104.752
 25.5016  10960.8  104.538
 25.6996  10913  103.903
 25.8976  10861.4  104.087
 26.0956  10834.8  103.977
 26.2936  10959  104.213
 26.4916  10897.4  103.803
 26.6896  10507.8  102.223
 26.8876  10450.5  101.801
 27.0856  10534.9  102.265
 27.2836  10315.6  101.09
 27.4816  10173.5  100.325
 27.6796  10121.7  100.44
 27.8776  10114.4  100.268
 28.0756  10152.6  100.736
 28.2736  10070.3  99.914
 28.4716  9901.75  99.1223
 28.6696  9871.57  98.8202
 28.8676  9791.01  98.7533
 29.0656  9635.74  97.9532
 29.2636  9728.85  98.2189
 29.4616  9593.52  97.7097
 29.6596  9599.85  97.3062
 29.8576  9503.2  97.5018
 30.0556  9378.89  96.7361
 30.2536  9665.33  97.9982
 30.4516  9344.05  96.0242
 30.6496  9417.79  96.1278
 30.8476  9394.18  96.4499
 31.0456  9199.9  95.4086
 31.2436  9145.37  94.4016
 31.4416  9125.28  94.4707
 31.6396  9243.24  95.1297
 31.8376  9086.45  93.8674
 32.0356  8996.66  93.966
 32.2336  9031.96  93.5424
 32.4316  8962.92  93.5826
 32.6296  8839.35  92.7742
 32.8276  8974.15  93.2528
 33.0256  8828.3  92.5674
 33.2236  8841.3  92.7856
 33.4216  8892.28  92.7424
 33.6196  8818.48  92.6456
 33.8176  8751.21  92.4531
 34.0156  8715.87  91.8888
 34.2136  8704.63  91.8684
 34.4116  8579.4  91.3471
 34.6096  8448.94  90.5327
 34.8076  8504.63  91.2433
 35.0056  8516.6  90.9954
 35.2036  8420.74  90.6863
 35.4016  8360.85  90.2903
 35.5996  8302.36  90.0102
 35.7976  8145.41  89.421
 35.9956  8469.6  90.835
 36.1936  8207.78  89.2783
 36.3916  8239.26  89.6345
 36.5896  8122.26  89.9504
 36.7876  8156.96  89.5544
 36.9856  8052.26  89.0054
 37.1836  8092.19  88.3333
 37.3816  8229.79  89.4443
 37.5796  8049.94  90.1748
 37.7776  7918.91  87.845
 37.9756  8003.73  88.1931
 38.1736  8096.28  88.8993
 38.3716  7941.97  88.3201
 38.5696  7980.02  88.9078
 38.7676  7656.74  86.5996
 38.9656  7786.05  86.9684
 39.1636  7734.18  86.942
 39.3616  7869.76  87.6284
 39.5596  7739.07  87.7263
 39.7576  7741.85  87.1294
 39.9556  7841.9  87.3378
 40.1536  7890.15  87.8033
 40.3516  7976.51  88.2935
 40.5496  7950.37  88.4098
 40.7476  7909.38  88.1864
 40.9456  7970.88  88.2701
 41.1436  7874.54  87.472
 41.3416  7834.87  87.5772
 41.5396  7757.02  86.944
 41.7376  7781.24  87.3503
 41.9356  7741.85  86.9887
 42.1336  7789.73  87.4077
 42.3316  7789.37  87.5999
 42.5296  7788.8  87.1164
 42.7276  7834.26  87.6079
 42.9256  7713.61  86.8054
 43.1236  7582.71  86.1712
 43.3216  7680.69  86.4785
 43.5196  7618.46  86.1921
 43.7176  7588.2  86.4096
 43.9156  7451.7  85.5366
 44.1136  7604.79  85.9622
 44.3116  7524.36  85.5111
 44.5096  7344.71  84.798
 44.7076  7430.62  85.2221
 44.9056  7372.98  84.7672
 45.1036  7335.29  84.1806
 45.3016  7281.11  84.3662
 45.4996  7145.66  83.5172
 45.6976  7179.68  83.8874
 45.8956  7269.61  84.2306
 46.0936  7346.58  84.4366
 46.2916  7229.16  83.9795
 46.4896  7278.11  84.2922
 46.6876  7051.06  83.6625
 46.8856  7160.21  83.5802
 47.0836  7134.32  83.6797
 47.2816  6996.38  82.7389
 47.4796  7068.01  83.2682
 47.6776  6920.71  83.3094
 47.8756  7030.55  83.1655
 48.0736  7041.92  83.6871
 48.2716  6873.98  82.5003
 48.4696  6959.48  82.6004
 48.6676  6830.79  82.4118
 48.8656  6895.21  82.5279
 49.0636  6911.17  82.5812
 49.2616  6779.22  81.8169
 49.4596  6768.86  81.3235
 49.6576  6804.42  81.7712
 49.8556  6747.98  81.4465
 50.0536  6748.94  81.8933
 50.2516  6710.16  81.7898
 50.4496  6709.69  81.4437
 50.6476  6769.14  81.4894
 50.8456  6602.98  80.5709
 51.0436  6512  80.4427
 51.2416  6485.66  79.9631
 51.4396  6272.91  79.0153
 51.6376  6424.09  79.7917
 51.8356  6433.32  79.4909
 52.0336  6352.15  79.4951
 52.2316  6405.43  80.1718
 52.4296  6480.57  80.3338
 52.6276  6353.03  79.6376
 52.8256  6368.14  79.3118
 53.0236  6253.16  79.2222
 53.2216  6197.83  78.8798
 53.4196  6212.35  78.9147
 53.6176  6080.31  78.5439
 53.8156  6166.23  78.7649
 54.0136  6238.12  79.4034
 54.2116  6127.33  78.3651
 54.4096  6226.95  79.0429
 54.6076  6132.38  78.7905
 54.8056  6026.56  77.8997
 55.0036  6097.65  78.6164
 55.2016  6110.8  78.3072
 55.3996  6083.8  78.1764
 55.5976  6017.47  77.9291
 55.7956  6139.27  78.5384
 55.9936  5985.53  77.6791
 56.1916  6100.66  78.4292
 56.3896  6094.25  78.3874
 56.5876  5987.48  78.2375
 56.7856  6032.83  78.0084
 56.9836  6013.74  77.6933
 57.1816  6070.46  78.4355
 57.3796  6073.34  78.2505
 57.5776  6030.6  77.9015
 57.7756  5984.11  78.2269
 57.9736  5978.56  77.876
 58.1716  6047.23  78.5604
 58.3696  6073.38  78.4791
 58.5676  6033.52  77.6945
 58.7656  6045.17  78.442
 58.9636  6177.65  79.3303
 59.1616  6054.17  78.649
 59.3596  6093.48  78.1778
 59.5576  6012.57  77.7135
 59.7556  6166.13  79.1222
 59.9536  6253.16  79.5758
 60.1516  6109.95  79.513
 60.1996  0.0000000E+00  0.0000000E+00