Folder: echemistpy/docs/examples/opeando_xrd/IS17_D/Data/IS17_D (part 23)

File: 17_Da_f00063.xye
# /beamlines/bl04/projects/cycle2025-II/20250340211-lsimonelli/DATA/IS17_D/17_Da_f00063.xye : mythproc.py merge -s 0.006 -l 0.5 -f /beamlines/bl04/inhouse/ff/FlatField/ff_20Nov2024rod8mm60s_17keV.raw -b True -c true -o xye /beamlines/bl04/projects/cycle2025-II/20250340211-lsimonelli/DATA/IS17_D/17_Da_00063.dat
# IsMon = [6770298, 6772387, 6768375]  IsPos = [-1.4999, -2.4884, -3.4988]
# Wave = 0.4962  CalPath /beamlines/bl04/projects/cycle2025-II/20250340211-lsimonelli/DATA/Align/Si_Pos1_25keV_f00001.cal
# Date = 2025-09-24_11:07:12 Dt = 4.8000  Bin = 0.0060  <imon> = 6770353 +/- 1638 (Min/Max) 6768375 / 6772387
# icurr 250.8360  mocoIn 1.7113E-05  mocoOut 0.8031  i15 7.08943e+06  imon 6.77035e+06  i7 4.0000  iEMpd_timer 4.8000  iEMpd_1 3.3836E-08  iEMpd_2 7.9002E-08  iEMpd_3 1.6185E-08  iEMpd_4 4.9599E-08  iEMhp_timer 4.8000  iEMhp_1 4.9006E-06  iEMhp_2 -2.4633E-08  iEMhp_3 -2.4473E-08  iEMhp_4 -2.0970E-08
#      9776
 1.7416  70015.4  264.681
 1.9396  45902.7  214.593
 2.1376  32537.5  180.663
 2.3356  28872.8  169.828
 2.5336  27533.4  166.426
 2.7316  25116.2  159.052
 2.9296  24222.6  156.36
 3.1276  23569.8  153.793
 3.3256  23390.2  152.871
 3.5236  25330.4  158.892
 3.7216  23386.5  153.924
 3.9196  22688.9  150.845
 4.1176  22572.5  150.233
 4.3156  23876.5  154.678
 4.5136  26526  162.003
 4.7116  27494.4  166.08
 4.9096  26723.8  163.172
 5.1076  26326.9  162.529
 5.3056  26815.9  163.771
 5.5036  26543.7  162.82
 5.7016  26952.2  164.041
 5.8996  27557.7  165.088
 6.0976  28237.7  168.546
 6.2956  28751.2  169.413
 6.4936  29453.5  170.661
 6.6916  29846  172.795
 6.8896  30566.9  174.731
 7.0876  31663.1  178.561
 7.2856  31644  177.564
 7.4836  32094.9  178.158
 7.6816  32979.1  181.13
 7.8796  34614.6  185.561
 8.0776  36242.2  190.867
 8.2756  38098.3  194.29
 8.4736  38346.7  194.722
 8.6716  37929.9  194.287
 8.8696  37938.5  194.81
 9.0676  37021.6  191.806
 9.2656  35808.7  189.325
 9.4636  35341.3  186.494
 9.6616  34767  185.753
 9.8596  33359.3  181.381
 10.0576  31642.9  177.322
 10.2556  30527.9  174.608
 10.4536  30376.3  173.772
 10.6516  30109  173.209
 10.8496  28083.5  166.707
 11.0476  27407.2  164.709
 11.2456  27190.1  164.593
 11.4436  27395.5  164.363
 11.6416  26337.1  161.524
 11.8396  24898.2  157.252
 12.0376  24710  156.302
 12.2356  24804.3  156.995
 12.4336  24512.5  155.619
 12.6316  23951.4  154.091
 12.8296  24534.4  155.59
 13.0276  25118  157.612
 13.2256  24678.3  156.595
 13.4236  24582.9  156.054
 13.6216  24740.4  156.576
 13.8196  24758.2  156.398
 14.0176  24347.9  155.382
 14.2156  23641.6  152.152
 14.4136  22581.1  150.087
 14.6116  22247.9  148.176
 14.8096  21626.4  146.082
 15.0076  20415.2  145.752
 15.2056  20290.7  141.093
 15.4036  19167.1  137.965
 15.6016  18868.8  135.963
 15.7996  18462.3  134.779
 15.9976  17624.5  134.645
 16.1956  17151.3  130.685
 16.3936  16764.3  128.376
 16.5916  16611.1  128.424
 16.7896  16739.6  128.977
 16.9876  16475.4  129.41
 17.1856  16013.4  125.945
 17.3836  15538.6  123.972
 17.5816  15391.5  123.872
 17.7796  15245.9  123.217
 17.9776  15073.7  123.325
 18.1756  15315.1  122.999
 18.3736  15219.8  123.128
 18.5716  14659.1  120.594
 18.7696  14753.6  120.55
 18.9676  14292  118.451
 19.1656  14215.8  118.697
 19.3636  14184.2  118.765
 19.5616  14036.3  118.312
 19.7596  14335.1  118.963
 19.9576  14949.6  121.542
 20.1556  14175.7  118.885
 20.3536  13902  117.1
 20.5516  13439.7  115.586
 20.7496  13390.7  115.312
 20.9476  13327.3  114.792
 21.1456  13373.7  115.324
 21.3436  13105.1  114.11
 21.5416  12988.3  113.605
 21.7396  12939.4  113.235
 21.9376  12889.4  112.785
 22.1356  12829.5  112.642
 22.3336  12932.9  113.389
 22.5316  12813.8  112.958
 22.7296  12914.4  112.758
 22.9276  12703.2  112.507
 23.1256  13073.5  113.615
 23.3236  12864.6  113.259
 23.5216  12670.2  112.059
 23.7196  12523.5  111.359
 23.9176  12507.8  111.034
 24.1156  12199  110.13
 24.3136  12022.6  110.111
 24.5116  11957.2  109.335
 24.7096  11683.9  107.896
 24.9076  11623.1  107.638
 25.1056  11248.5  106.354
 25.3036  11099.1  105.163
 25.5016  11278.1  106.044
 25.6996  11131.5  104.935
 25.8976  11188.9  105.645
 26.0956  11159.7  105.531
 26.2936  11155.9  105.143
 26.4916  11044.9  104.512
 26.6896  10734  103.323
 26.8876  10621.1  102.63
 27.0856  10770.7  103.41
 27.2836  10574.9  102.353
 27.4816  10383.6  101.342
 27.6796  10344.8  101.542
 27.8776  10258  100.968
 28.0756  10423  102.071
 28.2736  10207.9  100.594
 28.4716  9960.32  99.4142
 28.6696  9979.85  99.36
 28.8676  9887.67  99.2455
 29.0656  9834  98.9558
 29.2636  9836.25  98.7575
 29.4616  9815.43  98.8403
 29.6596  9749.31  98.0701
 29.8576  9466.03  97.3178
 30.0556  9733.4  98.5573
 30.2536  9754.47  98.4569
 30.4516  9599.14  97.3296
 30.6496  9708.49  97.6033
 30.8476  9577.55  97.3904
 31.0456  9370.33  96.2865
 31.2436  9421.28  95.8163
 31.4416  9332.21  95.5292
 31.6396  9455.23  96.2044
 31.8376  9225.52  94.5711
 32.0356  9207.4  95.0489
 32.2336  9074.53  93.7491
 32.4316  9141.42  94.5059
 32.6296  9060.45  93.9233
 32.8276  9179.77  94.3008
 33.0256  8962.77  93.2706
 33.2236  8928.04  93.2347
 33.4216  9034.22  93.4812
 33.6196  8928.14  93.2183
 33.8176  8965.17  93.577
 34.0156  8808.33  92.3668
 34.2136  8754.37  92.1262
 34.4116  8751.85  92.2714
 34.6096  8725.86  92.0096
 34.8076  8613.85  91.8306
 35.0056  8603.18  91.4595
 35.2036  8568.5  91.4751
 35.4016  8585.85  91.4972
 35.5996  8508.3  91.1147
 35.7976  8438.39  91.0165
 35.9956  8478.89  90.8821
 36.1936  8538.25  91.0609
 36.3916  8378.36  90.3913
 36.5896  8369.98  91.3087
 36.7876  8337.18  90.544
 36.9856  8231.65  89.9968
 37.1836  8340.34  89.6822
 37.3816  8242.9  89.5292
 37.5796  8202.47  91.037
 37.7776  7976.17  88.1536
 37.9756  8188.08  89.1987
 38.1736  8328.93  90.1702
 38.3716  8190.08  89.6927
 38.5696  8047.53  89.2812
 38.7676  7886.74  87.8831
 38.9656  7936  87.7907
 39.1636  7970.92  88.2563
 39.3616  8042.14  88.5709
 39.5596  7821.96  88.2054
 39.7576  7910.38  88.0762
 39.9556  8080  88.6516
 40.1536  8105.04  88.9944
 40.3516  8154.01  89.2741
 40.5496  8163.59  89.5793
 40.7476  8046.84  88.9531
 40.9456  8155.58  89.2885
 41.1436  8055.05  88.4652
 41.3416  8018.82  88.5971
 41.5396  7943.28  87.9895
 41.7376  7872.06  87.8608
 41.9356  7892.59  87.8351
 42.1336  8031.72  88.7518
 42.3316  7917.7  88.3209
 42.5296  7940.43  87.96
 42.7276  7968.48  88.3582
 42.9256  7893.94  87.8116
 43.1236  7791.24  87.346
 43.3216  7793.89  87.1167
 43.5196  7742.38  86.8872
 43.7176  7651.94  86.7705
 43.9156  7565.19  86.1914
 44.1136  7609.5  85.9954
 44.3116  7610.82  86.0173
 44.5096  7638.24  86.4803
 44.7076  7669.01  86.5845
 44.9056  7563.84  85.861
 45.1036  7476.18  84.9919
 45.3016  7386.16  84.9744
 45.4996  7348.51  84.6974
 45.6976  7295.93  84.5714
 45.8956  7434.81  85.1731
 46.0936  7383.62  84.8827
 46.2916  7483.89  85.4376
 46.4896  7274.54  84.2673
 46.6876  7364.21  85.4974
 46.8856  7230.14  83.9863
 47.0836  7216.84  84.1564
 47.2816  7173.47  83.7769
 47.4796  7251.21  84.3438
 47.6776  7101.24  84.4031
 47.8756  7110.6  83.6398
 48.0736  7119.59  84.1428
 48.2716  6953.38  82.9731
 48.4696  7067.06  83.2353
 48.6676  6983.15  83.3289
 48.8656  7075.67  83.6146
 49.0636  7060.63  83.4703
 49.2616  6873.78  82.3954
 49.4596  6930.89  82.3024
 49.6576  6863.66  82.1081
 49.8556  6859.39  82.1161
 50.0536  6904.14  82.8279
 50.2516  6876.79  82.8006
 50.4496  6782.75  81.885
 50.6476  6883.08  82.1756
 50.8456  6796.1  81.744
 51.0436  6625.79  81.1476
 51.2416  6661.36  81.0448
 51.4396  6469.28  80.2522
 51.6376  6665.82  81.2892
 51.8356  6504.1  79.9331
 52.0336  6474.67  80.2581
 52.2316  6527.49  80.9349
 52.4296  6508.34  80.5182
 52.6276  6524.64  80.7176
 52.8256  6654.73  81.0789
 53.0236  6470.58  80.5798
 53.2216  6365.79  79.9574
 53.4196  6353.51  79.8061
 53.6176  6257.03  79.6683
 53.8156  6394.38  80.2015
 54.0136  6447.49  80.7313
 54.2116  6461.13  80.4692
 54.4096  6350.94  79.8307
 54.6076  6329.16  80.0453
 54.8056  6232.8  79.2198
 55.0036  6269  79.8386
 55.2016  6161.5  78.701
 55.3996  6268.38  79.357
 55.5976  6151.93  78.7979
 55.7956  6263.47  79.3263
 55.9936  6268.03  79.4901
 56.1916  6184.75  78.9791
 56.3896  6260.48  79.4515
 56.5876  6121.74  79.1173
 56.7856  6172.18  78.9184
 56.9836  6103.8  78.2718
 57.1816  6158.07  78.9948
 57.3796  6171.74  78.8798
 57.5776  6187.44  78.9076
 57.7756  6103.31  79.0105
 57.9736  6146.69  78.9616
 58.1716  6128.18  79.0897
 58.3696  6050.8  78.3303
 58.5676  6187.47  78.6809
 58.7656  6246.9  79.7476
 58.9636  6244.76  79.7654
 59.1616  6087.48  78.8778
 59.3596  6322.96  79.6534
 59.5576  6196.35  78.9091
 59.7556  6290.91  79.9358
 59.9536  6323.97  80.0421
 60.1516  6144.44  79.7541
 60.1996  0.0000000E+00  0.0000000E+00

File: 17_Da_f00064.xye
# /beamlines/bl04/projects/cycle2025-II/20250340211-lsimonelli/DATA/IS17_D/17_Da_f00064.xye : mythproc.py merge -s 0.006 -l 0.5 -f /beamlines/bl04/inhouse/ff/FlatField/ff_20Nov2024rod8mm60s_17keV.raw -b True -c true -o xye /beamlines/bl04/projects/cycle2025-II/20250340211-lsimonelli/DATA/IS17_D/17_Da_00064.dat
# IsMon = [6779231, 6784537, 6780691]  IsPos = [-1.4999, -2.4883, -3.4988]
# Wave = 0.4962  CalPath /beamlines/bl04/projects/cycle2025-II/20250340211-lsimonelli/DATA/Align/Si_Pos1_25keV_f00001.cal
# Date = 2025-09-24_11:23:44 Dt = 4.8000  Bin = 0.0060  <imon> = 6781486 +/- 2238 (Min/Max) 6779231 / 6784537
# icurr 251.6275  mocoIn 1.7171E-05  mocoOut 0.8058  i15 7.10005e+06  imon 6.78149e+06  i7 6.6667  iEMpd_timer 4.8000  iEMpd_1 3.4250E-08  iEMpd_2 7.9101E-08  iEMpd_3 1.7168E-08  iEMpd_4 4.7566E-08  iEMhp_timer 4.8000  iEMhp_1 4.9172E-06  iEMhp_2 -2.4559E-08  iEMhp_3 -2.4630E-08  iEMhp_4 -2.1557E-08
#      9776
 1.7416  69609.2  263.955
 1.9396  45800.9  214.378
 2.1376  32259.7  179.919
 2.3356  29103.5  170.533
 2.5336  27505.6  166.368
 2.7316  25308.9  159.668
 2.9296  24214.5  156.341
 3.1276  23764.8  154.44
 3.3256  23479.6  153.192
 3.5236  25272  158.71
 3.7216  23199.7  153.309
 3.9196  22956.6  151.733
 4.1176  22438.3  149.788
 4.3156  23988.7  155.037
 4.5136  26623.8  162.299
 4.7116  27256.8  165.36
 4.9096  26808.2  163.433
 5.1076  26269.9  162.36
 5.3056  26812.4  163.759
 5.5036  26565.8  162.881
 5.7016  26944.1  164.016
 5.8996  27746  165.651
 6.0976  28265.1  168.639
 6.2956  28758.4  169.427
 6.4936  29597.1  171.08
 6.6916  29968.7  173.148
 6.8896  30841.7  175.512
 7.0876  31707.4  178.687
 7.2856  31648.8  177.575
 7.4836  32279.3  178.744
 7.6816  33113.5  181.499
 7.8796  34364.6  184.88
 8.0776  36728.7  192.126
 8.2756  38297.8  194.783
 8.4736  38455.8  194.983
 8.6716  37782.9  193.896
 8.8696  37861.1  194.626
 9.0676  37343.1  192.642
 9.2656  36045.9  189.959
 9.4636  35471.7  186.837
 9.6616  34580.9  185.253
 9.8596  33361.1  181.391
 10.0576  31744.4  177.599
 10.2556  30310.5  173.992
 10.4536  30861.8  175.162
 10.6516  30729.6  174.989
 10.8496  28180.8  166.996
 11.0476  27502.7  164.991
 11.2456  27601.6  165.828
 11.4436  27372.5  164.297
 11.6416  26463.3  161.912
 11.8396  25066.4  157.787
 12.0376  24950.4  157.054
 12.2356  24973.2  157.524
 12.4336  24644.7  156.029
 12.6316  24139.1  154.702
 12.8296  24542.7  155.618
 13.0276  25034.9  157.346
 13.2256  24735.3  156.778
 13.4236  24682.3  156.376
 13.6216  24730.2  156.55
 13.8196  24863.6  156.727
 14.0176  24192.8  154.888
 14.2156  23840  152.793
 14.4136  22628  150.237
 14.6116  22289.7  148.314
 14.8096  21795.3  146.649
 15.0076  20576.2  146.33
 15.2056  20104.2  140.43
 15.4036  19173  137.978
 15.6016  18920.5  136.14
 15.7996  18612.1  135.314
 15.9976  17574.3  134.45
 16.1956  17242.6  131.036
 16.3936  16725  128.227
 16.5916  16598.2  128.376
 16.7896  16813.2  129.265
 16.9876  16365.1  128.987
 17.1856  16228.4  126.793
 17.3836  15625.4  124.308
 17.5816  15267.7  123.381
 17.7796  15093.2  122.604
 17.9776  15089.2  123.395
 18.1756  15654.2  124.355
 18.3736  15308.2  123.485
 18.5716  14773.2  121.063
 18.7696  14796.7  120.724
 18.9676  14356.1  118.722
 19.1656  14189  118.578
 19.3636  14173.5  118.719
 19.5616  14088.4  118.532
 19.7596  14336.3  118.977
 19.9576  14841.8  121.105
 20.1556  14112.5  118.616
 20.3536  13811.1  116.723
 20.5516  13624  116.377
 20.7496  13331.1  115.059
 20.9476  13442  115.29
 21.1456  13571.9  116.169
 21.3436  13170.5  114.397
 21.5416  13233.4  114.671
 21.7396  12918.5  113.137
 21.9376  12952.2  113.056
 22.1356  13026.2  113.49
 22.3336  12853.9  113.032
 22.5316  13122.2  114.295
 22.7296  12649.3  111.585
 22.9276  12799.5  112.921
 23.1256  13119.9  113.802
 23.3236  12756  112.782
 23.5216  12804.1  112.654
 23.7196  12619.5  111.786
 23.9176  12546.7  111.218
 24.1156  12301.4  110.593
 24.3136  11895.5  109.533
 24.5116  12123.3  110.098
 24.7096  11695.6  107.954
 24.9076  11478.9  106.984
 25.1056  11290  106.557
 25.3036  11333.7  106.265
 25.5016  11334.7  106.314
 25.6996  11147.5  105.007
 25.8976  11227  105.818
 26.0956  11195.2  105.697
 26.2936  11090.4  104.831
 26.4916  11199.9  105.234
 26.6896  10765.9  103.478
 26.8876  10760.4  103.306
 27.0856  10792.6  103.505
 27.2836  10538.7  102.232
 27.4816  10542.1  102.127
 27.6796  10393.6  101.782
 27.8776  10379.6  101.567
 28.0756  10338.7  101.655
 28.2736  10316.2  101.123
 28.4716  10048.2  99.8525
 28.6696  10167.4  100.29
 28.8676  9945.95  99.5394
 29.0656  9848.36  99.0442
 29.2636  9899.86  99.0781
 29.4616  9807.68  98.7924
 29.6596  9738.66  98.0092
 29.8576  9715.97  98.5863
 30.0556  9712.42  98.4486
 30.2536  9807.9  98.7179
 30.4516  9600.08  97.3368
 30.6496  9521.97  96.6677
 30.8476  9460.76  96.7991
 31.0456  9438.98  96.6461
 31.2436  9605.08  96.7516
 31.4416  9337.64  95.561
 31.6396  9462.69  96.2461
 31.8376  9331.86  95.1233
 32.0356  9172.51  94.8714
 32.2336  9197.71  94.3961
 32.4316  9081.84  94.1601
 32.6296  9055.24  93.8951
 32.8276  9133.53  94.0864
 33.0256  8973.45  93.3291
 33.2236  8968.27  93.4484
 33.4216  9058.5  93.602
 33.6196  8947.1  93.3155
 33.8176  8952.1  93.5134
 34.0156  8817.9  92.4186
 34.2136  8819.25  92.4671
 34.4116  8788.15  92.5757
 34.6096  8613.07  91.4113
 34.8076  8579  91.6368
 35.0056  8659.88  91.7597
 35.2036  8575.38  91.5136
 35.4016  8562.76  91.3736
 35.5996  8525.11  91.2112
 35.7976  8471.24  91.1971
 35.9956  8621.74  91.6419
 36.1936  8439.69  90.5357
 36.3916  8319.08  90.0279
 36.5896  8428.58  91.6329
 36.7876  8539.7  91.6306
 36.9856  8117.45  89.3604
 37.1836  8453.26  90.2816
 37.3816  8348  90.0903
 37.5796  8133.71  90.6491
 37.7776  8039.44  88.5129
 37.9756  8118.04  88.8237
 38.1736  8332.12  90.1914
 38.3716  8174.11  89.6047
 38.5696  8056.88  89.3247
 38.7676  7994.93  88.4845
 38.9656  7986.32  88.0743
 39.1636  7936.46  88.0667
 39.3616  7909.34  87.8407
 39.5596  7891.75  88.5981
 39.7576  7941.83  88.2463
 39.9556  7988.02  88.1494
 40.1536  8118.22  89.0671
 40.3516  8162.44  89.3189
 40.5496  8127.04  89.3839
 40.7476  8113.01  89.3103
 40.9456  8213.33  89.6092
 41.1436  7973.96  88.0187
 41.3416  8072.35  88.8668
 41.5396  7911.79  87.7463
 41.7376  7926.96  88.1629
 41.9356  7854.97  87.6252
 42.1336  7991.13  88.5305
 42.3316  7914.41  88.2981
 42.5296  7922.29  87.861
 42.7276  7961.83  88.3209
 42.9256  8054.29  88.7014
 43.1236  7806.58  87.4321
 43.3216  7883.17  87.6137
 43.5196  7757.41  86.9723
 43.7176  7687.73  86.9748
 43.9156  7615.7  86.4722
 44.1136  7573.43  85.7847
 44.3116  7652.4  86.2476
 44.5096  7649.8  86.5396
 44.7076  7625.38  86.3285
 44.9056  7645.78  86.3299
 45.1036  7569.61  85.5235
 45.3016  7364.01  84.8512
 45.4996  7354.71  84.7362
 45.6976  7295.43  84.5671
 45.8956  7485.79  85.4667
 46.0936  7489.78  85.4379
 46.2916  7425  85.1032
 46.4896  7467.71  85.3776
 46.6876  7318  85.2351
 46.8856  7209.77  83.8572
 47.0836  7201.34  84.0721
 47.2816  7173.6  83.7747
 47.4796  7204.49  84.0567
 47.6776  7100.15  84.3871
 47.8756  7087.86  83.4974
 48.0736  7100.01  84.0359
 48.2716  7063.12  83.6667
 48.4696  7093.08  83.4155
 48.6676  7076  83.8911
 48.8656  7156.06  84.0817
 49.0636  7134.87  83.9046
 49.2616  6966.82  82.8364
 49.4596  6921.47  82.3901
 49.6576  6986.27  82.8573
 49.8556  6946.02  82.6301
 50.0536  6913.58  82.8861
 50.2516  6908.54  82.9954
 50.4496  6888.48  82.5186
 50.6476  6811.22  81.7403
 50.8456  6806.46  81.7979
 51.0436  6796.14  82.1781
 51.2416  6719.32  81.3935
 51.4396  6612.3  81.1239
 51.6376  6674.36  81.3305
 51.8356  6527.53  80.0694
 52.0336  6546.35  80.7058
 52.2316  6441.69  80.4046
 52.4296  6511.61  80.5189
 52.6276  6522.35  80.7144
 52.8256  6602.63  80.7624
 53.0236  6421  80.273
 53.2216  6349.76  79.8585
 53.4196  6375.6  79.9479
 53.6176  6315.24  80.0416
 53.8156  6378.59  80.1164
 54.0136  6459.11  80.798
 54.2116  6395.46  80.0598
 54.4096  6313.23  79.5799
 54.6076  6304.07  79.8816
 54.8056  6255.19  79.3623
 55.0036  6275.53  79.8837
 55.2016  6284.83  79.493
 55.3996  6283.22  79.4436
 55.5976  6251.64  79.4342
 55.7956  6312.51  79.6385
 55.9936  6238.03  79.3056
 56.1916  6278.67  79.5615
 56.3896  6287.32  79.6217
 56.5876  6121.6  79.112
 56.7856  6260.16  79.4735
 56.9836  6147  78.5478
 57.1816  6168.33  79.0646
 57.3796  6211.66  79.1331
 57.5776  6254.19  79.3406
 57.7756  6091.66  78.9271
 57.9736  6148.34  78.9713
 58.1716  6222.44  79.6887
 58.3696  6180.4  79.1605
 58.5676  6239.08  79.0042
 58.7656  6103.56  78.8188
 58.9636  6226.11  79.6418
 59.1616  6265.56  80.0206
 59.3596  6315.18  79.5945
 59.5576  6139.51  78.5395
 59.7556  6240.56  79.6083
 59.9536  6219.18  79.3692
 60.1516  6344.38  81.0342
 60.1996  0.0000000E+00  0.0000000E+00