Folder: echemistpy/docs/examples/opeando_xrd/IS17_D/Data/IS17_D (part 76)

File: 17_Db_f00040.xye
# /beamlines/bl04/projects/cycle2025-II/20250340211-lsimonelli/DATA/IS17_D/17_Db_f00040.xye : mythproc.py merge -s 0.006 -l 0.5 -f /beamlines/bl04/inhouse/ff/FlatField/ff_20Nov2024rod8mm60s_17keV.raw -b True -c true -o xye /beamlines/bl04/projects/cycle2025-II/20250340211-lsimonelli/DATA/IS17_D/17_Db_00040.dat
# IsMon = [6756230, 6756567, 6757432]  IsPos = [-1.4999, -2.4885, -3.4988]
# Wave = 0.4962  CalPath /beamlines/bl04/projects/cycle2025-II/20250340211-lsimonelli/DATA/Align/Si_Pos1_25keV_f00001.cal
# Date = 2025-09-24_04:50:02 Dt = 4.8000  Bin = 0.0060  <imon> = 6756743 +/- 506 (Min/Max) 6756230 / 6757432
# icurr 250.2604  mocoIn 1.7079E-05  mocoOut 0.8013  i15 7.07558e+06  imon 6.75674e+06  i7 3.6667  iEMpd_timer 4.8000  iEMpd_1 3.5186E-08  iEMpd_2 7.9112E-08  iEMpd_3 1.6504E-08  iEMpd_4 4.7486E-08  iEMhp_timer 4.8000  iEMhp_1 4.8893E-06  iEMhp_2 -2.5814E-08  iEMhp_3 -2.3488E-08  iEMhp_4 -2.1507E-08
#      9776
 1.7416  71331.5  267.166
 1.9396  49111.7  221.959
 2.1376  36150  190.435
 2.3356  32244.7  179.477
 2.5336  30225.5  174.378
 2.7316  27739.8  167.172
 2.9296  26592.5  163.837
 3.1276  25703.3  160.606
 3.3256  24985.2  158.01
 3.5236  26535.9  162.782
 3.7216  24277.9  156.824
 3.9196  23626.1  153.899
 4.1176  23517.3  153.335
 4.3156  24323.8  156.109
 4.5136  26808.1  162.867
 4.7116  27691.7  166.667
 4.9096  26861.7  163.586
 5.1076  26616.6  163.414
 5.3056  26567.4  162.988
 5.5036  26429.5  162.56
 5.7016  26646.2  163.101
 5.8996  27206.1  164.045
 6.0976  28013.5  167.865
 6.2956  28020.1  167.234
 6.4936  29034.2  169.436
 6.6916  29347.2  171.32
 6.8896  29968.8  172.985
 7.0876  30932.9  176.486
 7.2856  30731.1  174.96
 7.4836  31280.3  175.865
 7.6816  31916  178.154
 7.8796  32465.5  179.698
 8.0776  34054.2  185.013
 8.2756  35481.1  187.488
 8.4736  36361.5  189.607
 8.6716  35378.6  187.648
 8.8696  36031.1  189.857
 9.0676  35305.4  187.28
 9.2656  34082.6  184.68
 9.4636  33270.8  180.96
 9.6616  32372.2  179.214
 9.8596  32009.2  177.664
 10.0576  29758.8  171.97
 10.2556  29152.6  170.637
 10.4536  27934.9  166.654
 10.6516  27366.5  165.152
 10.8496  26063.2  160.595
 11.0476  25150.7  157.733
 11.2456  24611  156.593
 11.4436  24522.2  155.509
 11.6416  26197.4  161.079
 11.8396  23943  154.186
 12.0376  23228.6  151.507
 12.2356  22935.5  150.997
 12.4336  23104.3  151.084
 12.6316  22941  150.796
 12.8296  22958.3  150.491
 13.0276  23175.1  151.39
 13.2256  23705.5  153.48
 13.4236  23547.4  152.739
 13.6216  23859.1  153.741
 13.8196  26115.3  160.297
 14.0176  22925  150.777
 14.2156  22573.7  148.665
 14.4136  21489.2  146.405
 14.6116  21105.4  144.306
 14.8096  20393.8  141.827
 15.0076  19557.8  142.719
 15.2056  18525.3  134.813
 15.4036  17723.4  132.669
 15.6016  17342.4  130.347
 15.7996  17046.3  129.495
 15.9976  16710.7  131.046
 16.1956  16342.7  127.525
 16.3936  16341  126.709
 16.5916  15651.1  124.64
 16.7896  15913.6  125.736
 16.9876  15642.9  126.091
 17.1856  15647.8  124.513
 17.3836  15225.4  122.734
 17.5816  14570  120.528
 17.7796  14408.4  119.789
 17.9776  13813.6  118.043
 18.1756  13924.1  117.297
 18.3736  13661.7  116.657
 18.5716  13658.8  116.403
 18.7696  13579.2  115.634
 18.9676  13461.6  114.943
 19.1656  13139.7  114.123
 19.3636  13176.5  114.476
 19.5616  13145.3  114.501
 19.7596  13364.3  114.867
 19.9576  13441.6  115.234
 20.1556  14019  118.217
 20.3536  13661.8  116.087
 20.5516  13023.8  113.781
 20.7496  12582  111.77
 20.9476  12621.3  111.71
 21.1456  12473.1  111.37
 21.3436  12441  111.179
 21.5416  12238.5  110.28
 21.7396  12105.5  109.523
 21.9376  12044.4  109.026
 22.1356  12111.9  109.452
 22.3336  11940.9  108.938
 22.5316  11917.7  108.941
 22.7296  11903.5  108.262
 22.9276  11738.4  108.15
 23.1256  11848.8  108.154
 23.3236  12467.7  111.51
 23.5216  12198.4  109.942
 23.7196  12041.1  109.179
 23.9176  12129.8  109.332
 24.1156  11877.4  108.642
 24.3136  11404.7  107.245
 24.5116  11680.2  108.043
 24.7096  11159.2  105.438
 24.9076  11106.5  105.228
 25.1056  10834.7  104.123
 25.3036  10685.9  103.185
 25.5016  10651.6  103.051
 25.6996  10549.4  102.15
 25.8976  10533.6  102.498
 26.0956  10400.8  101.867
 26.2936  10463.4  101.839
 26.4916  10733.8  102.998
 26.6896  10395  101.66
 26.8876  10397.4  101.526
 27.0856  10110.8  100.143
 27.2836  10142.2  100.23
 27.4816  9927.5  99.1055
 27.6796  9692.19  98.27
 27.8776  10032.5  99.8412
 28.0756  9640.82  98.1624
 28.2736  9697.74  98.0446
 28.4716  9374.07  96.4416
 28.6696  9541.41  97.1514
 28.8676  9371.07  96.6232
 29.0656  9389.71  96.695
 29.2636  9373.86  96.3275
 29.4616  8886.19  94.0429
 29.6596  9105.4  94.7751
 29.8576  8869.15  94.1982
 30.0556  8958.01  94.5459
 30.2536  8982.65  94.4797
 30.4516  9073.67  94.6066
 30.6496  9111.55  94.5437
 30.8476  9115.99  94.9907
 31.0456  9212.62  95.4657
 31.2436  9170.08  94.5122
 31.4416  8928.21  93.4433
 31.6396  9011.66  93.9155
 31.8376  8866.68  92.7148
 32.0356  8837.27  93.079
 32.2336  8834.72  92.5123
 32.4316  8578.89  91.5526
 32.6296  8621.34  91.5437
 32.8276  8510.98  90.8261
 33.0256  8544.81  91.0593
 33.2236  8683.21  91.9477
 33.4216  8539.19  90.873
 33.6196  8445.5  90.6585
 33.8176  8457.13  90.8761
 34.0156  8454.44  90.5042
 34.2136  8504.49  90.7975
 34.4116  8180.09  89.2058
 34.6096  8349.96  90.0074
 34.8076  8164.71  89.4067
 35.0056  8177.69  89.1527
 35.2036  8417.94  90.6789
 35.4016  8168.35  89.2414
 35.5996  8072.8  88.752
 35.7976  8051.91  88.8986
 35.9956  8350.78  90.1892
 36.1936  8153.44  88.9701
 36.3916  7976.31  88.1899
 36.5896  7976.18  89.6169
 36.7876  7640.37  86.6676
 36.9856  7648.63  86.7403
 37.1836  7644.2  85.8583
 37.3816  7802.75  87.0981
 37.5796  7802.34  88.7839
 37.7776  7842.54  87.4068
 37.9756  7852.23  87.3478
 38.1736  7794.08  87.2169
 38.3716  7799.21  87.5143
 38.5696  7639.46  86.9789
 38.7676  7618.25  86.3766
 38.9656  7636.54  86.1059
 39.1636  7710.05  86.7774
 39.3616  7635.66  86.3183
 39.5596  7514.2  86.4359
 39.7576  7540.4  85.9957
 39.9556  7637.97  86.1941
 40.1536  7732.51  86.9163
 40.3516  7669.04  86.5748
 40.5496  7746.91  87.0536
 40.7476  7719.72  87.1154
 40.9456  7757.41  87.085
 41.1436  7851.62  87.3385
 41.3416  7604.48  86.2798
 41.5396  7602.71  86.0812
 41.7376  7662.53  86.6762
 41.9356  7451  85.328
 42.1336  7653.52  86.6219
 42.3316  7496.94  85.9321
 42.5296  7612.45  86.1194
 42.7276  7655.09  86.5968
 42.9256  7556.61  85.9146
 43.1236  7503.27  85.7059
 43.3216  7556.02  85.8695
 43.5196  7554.38  85.8248
 43.7176  7452.69  85.6069
 43.9156  7199.79  84.0833
 44.1136  7259.19  83.9905
 44.3116  7340.85  84.4704
 44.5096  7283.22  84.4469
 44.7076  7257.65  84.2298
 44.9056  7468.23  85.3042
 45.1036  7401.25  84.5559
 45.3016  7414.71  85.1242
 45.4996  7263.96  84.1933
 45.6976  7257.56  84.337
 45.8956  7251.56  84.1187
 46.0936  7415.97  85.0751
 46.2916  7270.71  84.213
 46.4896  7335.25  84.6164
 46.6876  7359.67  85.464
 46.8856  7135.62  83.4287
 47.0836  7189.9  83.9907
 47.2816  7089.67  83.2906
 47.4796  7157.28  83.7913
 47.6776  7127.57  84.5641
 47.8756  7137.47  83.7968
 48.0736  7149.78  84.3123
 48.2716  7063.6  83.6253
 48.4696  7256.93  84.3495
 48.6676  7101.13  84.03
 48.8656  7294.91  84.8951
 49.0636  7217.86  84.3724
 49.2616  7030.96  83.3301
 49.4596  7059.22  83.0529
 49.6576  7038.53  83.1663
 49.8556  7146.93  83.8203
 50.0536  6914.11  82.8878
 50.2516  7056.15  83.8387
 50.4496  7116.29  83.8755
 50.6476  7030.57  83.0499
 50.8456  6990.02  82.8908
 51.0436  6882.37  82.6995
 51.2416  6789.99  81.8184
 51.4396  6753.18  81.9986
 51.6376  6838.21  82.3369
 51.8356  6783.13  81.6257
 52.0336  6755.88  81.9644
 52.2316  6763.43  82.3776
 52.4296  6739.52  81.9304
 52.6276  6680.99  81.6814
 52.8256  6747.23  81.648
 53.0236  6821.11  82.7292
 53.2216  6823.15  82.7869
 53.4196  6642.61  81.5767
 53.6176  6736.67  82.6628
 53.8156  6776.11  82.5784
 54.0136  6403.08  80.4326
 54.2116  6575.58  81.1374
 54.4096  6444.94  80.4059
 54.6076  6506.22  81.1404
 54.8056  6311.49  79.6839
 55.0036  6365.81  80.436
 55.2016  6537.58  81.0259
 55.3996  6189.7  78.8293
 55.5976  6276.78  79.5847
 55.7956  6232.57  79.1148
 55.9936  6346.65  79.9628
 56.1916  6231.1  79.2541
 56.3896  6160  78.7835
 56.5876  6151.31  79.2665
 56.7856  6102.62  78.4664
 56.9836  6197.52  78.8506
 57.1816  6297.64  79.843
 57.3796  5993.73  77.7185
 57.5776  6060.56  78.0424
 57.7756  5965.11  78.0984
 57.9736  5956.38  77.6908
 58.1716  5864.74  77.3591
 58.3696  5779.67  76.5612
 58.5676  5867.09  76.6087
 58.7656  5636.08  75.7478
 58.9636  5643.74  75.8226
 59.1616  5620.05  75.7971
 59.3596  5905.69  76.9636
 59.5576  5791.79  76.2746
 59.7556  5851.21  77.0765
 59.9536  5765.65  76.4121
 60.1516  5719.8  76.9337
 60.1996  0.0000000E+00  0.0000000E+00

File: 17_Db_f00041.xye
# /beamlines/bl04/projects/cycle2025-II/20250340211-lsimonelli/DATA/IS17_D/17_Db_f00041.xye : mythproc.py merge -s 0.006 -l 0.5 -f /beamlines/bl04/inhouse/ff/FlatField/ff_20Nov2024rod8mm60s_17keV.raw -b True -c true -o xye /beamlines/bl04/projects/cycle2025-II/20250340211-lsimonelli/DATA/IS17_D/17_Db_00041.dat
# IsMon = [6767143, 6762270, 6770569]  IsPos = [-1.5000, -2.4885, -3.4988]
# Wave = 0.4962  CalPath /beamlines/bl04/projects/cycle2025-II/20250340211-lsimonelli/DATA/Align/Si_Pos1_25keV_f00001.cal
# Date = 2025-09-24_05:06:32 Dt = 4.8000  Bin = 0.0060  <imon> = 6766661 +/- 3405 (Min/Max) 6762270 / 6770569
# icurr 251.0496  mocoIn 1.7126E-05  mocoOut 0.8039  i15 7.08597e+06  imon 6.76666e+06  i7 4.3333  iEMpd_timer 4.8000  iEMpd_1 3.4599E-08  iEMpd_2 7.8673E-08  iEMpd_3 1.6664E-08  iEMpd_4 4.8210E-08  iEMhp_timer 4.8000  iEMhp_1 4.9050E-06  iEMhp_2 -2.6358E-08  iEMhp_3 -2.5278E-08  iEMhp_4 -2.1266E-08
#      9776
 1.7416  71435.9  267.342
 1.9396  49107.4  221.946
 2.1376  36482.8  191.296
 2.3356  32477.2  180.109
 2.5336  30802.5  176.022
 2.7316  27928.6  167.759
 2.9296  26733.6  164.286
 3.1276  25969.9  161.45
 3.3256  25329.5  159.122
 3.5236  26817.1  163.668
 3.7216  24222.6  156.636
 3.9196  23698.4  154.148
 4.1176  23679.8  153.869
 4.3156  24525.7  156.751
 4.5136  26944.2  163.288
 4.7116  27945.1  167.427
 4.9096  27194.1  164.587
 5.1076  26814.8  164.018
 5.3056  26866.9  163.89
 5.5036  26494.4  162.759
 5.7016  26914.1  163.919
 5.8996  27283.3  164.278
 6.0976  28149.4  168.273
 6.2956  28182.1  167.721
 6.4936  29107.6  169.645
 6.6916  29604.7  172.08
 6.8896  30339.4  174.036
 7.0876  31460.9  177.896
 7.2856  30957.4  175.605
 7.4836  31386  176.172
 7.6816  32157.7  178.844
 7.8796  32776.6  180.565
 8.0776  34122.1  185.205
 8.2756  35779.4  188.258
 8.4736  36645.2  190.359
 8.6716  35567.4  188.17
 8.8696  36420.1  190.856
 9.0676  35409  187.521
 9.2656  34574.6  185.984
 9.4636  33345.6  181.133
 9.6616  32633.2  179.909
 9.8596  32061  177.831
 10.0576  30177.3  173.196
 10.2556  29248  170.945
 10.4536  28134.8  167.26
 10.6516  27311.7  165.006
 10.8496  26244.2  161.141
 11.0476  25408.9  158.548
 11.2456  24631.6  156.672
 11.4436  24635.2  155.868
 11.6416  26305.4  161.401
 11.8396  24258.1  155.2
 12.0376  23616.1  152.773
 12.2356  23191.3  151.839
 12.4336  23095.9  151.05
 12.6316  23058.9  151.18
 12.8296  23153.7  151.122
 13.0276  23309.9  151.836
 13.2256  23742.8  153.596
 13.4236  23719.1  153.294
 13.6216  24147  154.669
 13.8196  26125.4  160.348
 14.0176  23020.6  151.09
 14.2156  22677.7  149.008
 14.4136  21585.2  146.737
 14.6116  21292.3  144.949
 14.8096  20682.1  142.827
 15.0076  19736  143.37
 15.2056  18701.9  135.458
 15.4036  17829.7  133.069
 15.6016  17672.7  131.587
 15.7996  17158.4  129.911
 15.9976  16922.1  131.864
 16.1956  16376.9  127.641
 16.3936  16176.9  126.05
 16.5916  15814.7  125.274
 16.7896  15835.9  125.407
 16.9876  15743.6  126.506
 17.1856  15608.8  124.377
 17.3836  15307  123.078
 17.5816  14836.6  121.645
 17.7796  14623.3  120.696
 17.9776  14047.2  119.033
 18.1756  14043  117.797
 18.3736  13644.5  116.586
 18.5716  13707.1  116.596
 18.7696  13693.1  116.115
 18.9676  13582.9  115.445
 19.1656  13224.7  114.49
 19.3636  13220.4  114.672
 19.5616  13151.7  114.528
 19.7596  13413.8  115.078
 19.9576  13521.9  115.574
 20.1556  14109.9  118.6
 20.3536  13794.2  116.65
 20.5516  13200.6  114.552
 20.7496  12876  112.976
 20.9476  12775.5  112.388
 21.1456  12543.7  111.682
 21.3436  12472.1  111.314
 21.5416  12365.4  110.853
 21.7396  12183.2  109.879
 21.9376  12164.6  109.565
 22.1356  12349.6  110.677
 22.3336  11852.3  108.537
 22.5316  12158.1  110.038
 22.7296  12005.7  108.72
 22.9276  11903.9  108.916
 23.1256  11906.3  108.409
 23.3236  12381.8  111.107
 23.5216  12209.9  109.975
 23.7196  12192  110.065
 23.9176  12338.6  110.257
 24.1156  11789.3  108.222
 24.3136  11666.4  108.486
 24.5116  11685.7  108.093
 24.7096  11363  106.406
 24.9076  11231.7  105.827
 25.1056  10941.9  104.65
 25.3036  10771.6  103.604
 25.5016  10658.8  103.09
 25.6996  10724.4  103.001
 25.8976  10664.8  103.122
 26.0956  10443.2  102.067
 26.2936  10636.6  102.687
 26.4916  10787  103.256
 26.6896  10446.7  101.917
 26.8876  10392.6  101.506
 27.0856  10204.7  100.608
 27.2836  10097.4  100.011
 27.4816  9862.94  98.7854
 27.6796  9908.66  99.3673
 27.8776  10093.4  100.151
 28.0756  9760.5  98.7739
 28.2736  9783.21  98.4724
 28.4716  9492.35  97.0461
 28.6696  9548.2  97.1846
 28.8676  9500.51  97.2874
 29.0656  9417.79  96.8373
 29.2636  9413.75  96.5335
 29.4616  9068.75  95.0072
 29.6596  9205.37  95.2976
 29.8576  8789.68  93.7775
 30.0556  9002.49  94.7779
 30.2536  9155.64  95.3869
 30.4516  9163.85  95.0539
 30.6496  9359.4  95.8061
 30.8476  9125.87  95.04
 31.0456  9248.05  95.6354
 31.2436  9259.22  94.9694
 31.4416  8957.7  93.6133
 31.6396  8999.96  93.8752
 31.8376  9004.06  93.4326
 32.0356  8886.76  93.3887
 32.2336  8962.75  93.1853
 32.4316  8610.34  91.7285
 32.6296  8768.73  92.3306
 32.8276  8719.08  91.9242
 33.0256  8671.11  91.7376
 33.2236  8646.37  91.7435
 33.4216  8654.27  91.48
 33.6196  8585.08  91.4073
 33.8176  8615.42  91.7351
 34.0156  8566  91.0987
 34.2136  8603.42  91.3166
 34.4116  8322.23  89.9785
 34.6096  8306.14  89.7709
 34.8076  8298.04  90.1379
 35.0056  8271.63  89.6618
 35.2036  8426.3  90.7224
 35.4016  8225.07  89.5499
 35.5996  8298.12  89.9852
 35.7976  8115.98  89.2445
 35.9956  8226.82  89.5156
 36.1936  8319.41  89.8749
 36.3916  8050.13  88.5982
 36.5896  8060.47  90.0881
 36.7876  7842.44  87.8184
 36.9856  7627.25  86.6314
 37.1836  7808.96  86.773
 37.3816  7714.59  86.6016
 37.5796  7901.39  89.351
 37.7776  7857.61  87.4798
 37.9756  8046.03  88.406
 38.1736  8026.84  88.4913
 38.3716  7840.82  87.7259
 38.5696  7741.58  87.5539
 38.7676  7690.39  86.8008
 38.9656  7699.34  86.4859
 39.1636  7754.22  87.0325
 39.3616  7726.71  86.8467
 39.5596  7622.24  87.0594
 39.7576  7584.76  86.2473
 39.9556  7647.7  86.2529
 40.1536  7775.98  87.1552
 40.3516  7740.38  86.9874
 40.5496  7679.4  86.6844
 40.7476  7798.27  87.5441
 40.9456  7808.95  87.3684
 41.1436  7836.06  87.2465
 41.3416  7643.24  86.5009
 41.5396  7673.52  86.4789
 41.7376  7675.45  86.7436
 41.9356  7630.31  86.3485
 42.1336  7878.85  87.8869
 42.3316  7631.3  86.6965
 42.5296  7666.96  86.4282
 42.7276  7686.45  86.7735
 42.9256  7601.97  86.1693
 43.1236  7547.4  85.9608
 43.3216  7611.67  86.1812
 43.5196  7580.34  85.9691
 43.7176  7537.48  86.0994
 43.9156  7482.35  85.7202
 44.1136  7229.19  83.821
 44.3116  7370.01  84.6351
 44.5096  7376.22  84.9874
 44.7076  7327.69  84.6375
 44.9056  7551.63  85.7734
 45.1036  7406.33  84.5699
 45.3016  7407.2  85.0697
 45.4996  7331.25  84.5771
 45.6976  7310  84.6236
 45.8956  7345.43  84.674
 46.0936  7512.68  85.3901
 46.2916  7305.11  84.4207
 46.4896  7341.91  84.6557
 46.6876  7171.38  84.3835
 46.8856  7222.02  83.9322
 47.0836  7254.66  84.3749
 47.2816  7138.93  83.587
 47.4796  7228.05  84.2087
 47.6776  7204.11  84.9974
 47.8756  7204.63  84.1871
 48.0736  7180.92  84.4927
 48.2716  7169.57  84.2513
 48.4696  7199.84  84.0098
 48.6676  7198.09  84.5995
 48.8656  7152.3  84.053
 49.0636  7223.55  84.4121
 49.2616  7089.62  83.6718
 49.4596  7188.74  83.814
 49.6576  7175.99  83.9595
 49.8556  7184.21  84.0401
 50.0536  7127.12  84.1513
 50.2516  7109.73  84.1593
 50.4496  7124.85  83.9312
 50.6476  7149.31  83.7466
 50.8456  7110.36  83.6065
 51.0436  6995.31  83.3816
 51.2416  6825.46  82.0221
 51.4396  6707.92  81.7272
 51.6376  6829.5  82.2913
 51.8356  6784.45  81.6415
 52.0336  6848.03  82.5145
 52.2316  6859.79  82.9477
 52.4296  6720.02  81.7983
 52.6276  6701.98  81.7851
 52.8256  6958.62  82.9024
 53.0236  6846.01  82.9013
 53.2216  6777.24  82.4959
 53.4196  6852.79  82.8847
 53.6176  6743.18  82.7218
 53.8156  6704.59  82.148
 54.0136  6522.02  81.178
 54.2116  6637.83  81.5393
 54.4096  6441.33  80.398
 54.6076  6429.09  80.6604
 54.8056  6371.96  80.0667
 55.0036  6605.38  81.7928
 55.2016  6395.03  80.0574
 55.3996  6271.69  79.3469
 55.5976  6256.23  79.4352
 55.7956  6289.82  79.4736
 55.9936  6363.69  80.0673
 56.1916  6169.71  78.8751
 56.3896  6160.69  78.7887
 56.5876  6197.24  79.5598
 56.7856  6074.49  78.2814
 56.9836  6217.51  78.9727
 57.1816  6288.28  79.7893
 57.3796  6174.47  78.8812
 57.5776  6130.61  78.4953
 57.7756  6071.13  78.7698
 57.9736  6000.96  77.9916
 58.1716  5958.46  77.9673
 58.3696  5771.53  76.5142
 58.5676  5828.92  76.3732
 58.7656  5771.69  76.6564
 58.9636  5701.31  76.2158
 59.1616  5754.96  76.7041
 59.3596  5810.42  76.3234
 59.5576  5806.95  76.3562
 59.7556  5736.22  76.2973
 59.9536  5754.03  76.3169
 60.1516  5839.73  77.7176
 60.1996  0.0000000E+00  0.0000000E+00