Folder: echemistpy/docs/examples/opeando_xrd/IS17_D/Data/IS17_D (part 36)

File: 17_Da_f00094.xye
# /beamlines/bl04/projects/cycle2025-II/20250340211-lsimonelli/DATA/IS17_D/17_Da_f00094.xye : mythproc.py merge -s 0.006 -l 0.5 -f /beamlines/bl04/inhouse/ff/FlatField/ff_20Nov2024rod8mm60s_17keV.raw -b True -c true -o xye /beamlines/bl04/projects/cycle2025-II/20250340211-lsimonelli/DATA/IS17_D/17_Da_00094.dat
# IsMon = [6776911, 6775111, 6775817]  IsPos = [-1.4999, -2.4884, -3.4988]
# Wave = 0.4962  CalPath /beamlines/bl04/projects/cycle2025-II/20250340211-lsimonelli/DATA/Align/Si_Pos1_25keV_f00001.cal
# Date = 2025-09-24_19:45:51 Dt = 4.8000  Bin = 0.0060  <imon> = 6775946 +/- 741 (Min/Max) 6775111 / 6776911
# icurr 251.2186  mocoIn 1.7137E-05  mocoOut 0.8035  i15 7.09218e+06  imon 6.77595e+06  i7 6.3333  iEMpd_timer 4.8000  iEMpd_1 3.4266E-08  iEMpd_2 7.7661E-08  iEMpd_3 1.6290E-08  iEMpd_4 4.6097E-08  iEMhp_timer 4.8000  iEMhp_1 4.9071E-06  iEMhp_2 -2.5870E-08  iEMhp_3 -2.3734E-08  iEMhp_4 -2.0331E-08
#      9776
 1.7416  70189.7  264.991
 1.9396  45975.4  214.739
 2.1376  32388.2  180.235
 2.3356  29321.9  171.131
 2.5336  27045.2  164.931
 2.7316  25390.2  159.928
 2.9296  24492.8  157.24
 3.1276  23988.7  155.155
 3.3256  23615.9  153.625
 3.5236  25601.6  159.758
 3.7216  23220.6  153.379
 3.9196  23046.2  152.033
 4.1176  22704.7  150.659
 4.3156  24098.4  155.389
 4.5136  26246.6  161.155
 4.7116  27457.9  165.97
 4.9096  26888  163.672
 5.1076  26602.5  163.374
 5.3056  26952.8  164.186
 5.5036  26864.2  163.807
 5.7016  27219.7  164.854
 5.8996  27791.4  165.79
 6.0976  28336.6  168.84
 6.2956  29097.5  170.433
 6.4936  29463.2  170.694
 6.6916  29839.5  172.775
 6.8896  30788.6  175.359
 7.0876  31597.2  178.375
 7.2856  31438.2  176.984
 7.4836  31916.8  177.661
 7.6816  32824  180.703
 7.8796  34120.6  184.243
 8.0776  35444.6  188.762
 8.2756  37221.1  192.035
 8.4736  37754.7  193.221
 8.6716  37089.2  192.139
 8.8696  36835.6  191.94
 9.0676  35937.6  188.955
 9.2656  35122.3  187.484
 9.4636  34737.4  184.867
 9.6616  34050.3  183.805
 9.8596  32941.1  180.254
 10.0576  30962.5  175.424
 10.2556  29837  172.633
 10.4536  29079.4  170.034
 10.6516  28462.9  168.406
 10.8496  27724.4  165.635
 11.0476  27128.9  163.869
 11.2456  26318.1  161.938
 11.4436  26520.2  161.723
 11.6416  26290.9  161.385
 11.8396  24605.3  156.319
 12.0376  24388  155.271
 12.2356  23955  154.293
 12.4336  23941  153.792
 12.6316  23675.8  153.197
 12.8296  24007.8  153.914
 13.0276  24621.8  156.052
 13.2256  24488.6  155.995
 13.4236  24310  155.189
 13.6216  24370.9  155.396
 13.8196  24421.2  155.331
 14.0176  23964.1  154.155
 14.2156  23344.7  151.199
 14.4136  22468.8  149.711
 14.6116  22030.6  147.45
 14.8096  21534.7  145.766
 15.0076  20131.8  144.723
 15.2056  20019.8  140.15
 15.4036  19130.9  137.845
 15.6016  18770.2  135.613
 15.7996  18135.9  133.571
 15.9976  17362.8  133.618
 16.1956  16819  129.398
 16.3936  16602.5  127.742
 16.5916  16218.5  126.884
 16.7896  16189.3  126.829
 16.9876  16193.4  128.314
 17.1856  15884.6  125.455
 17.3836  15410.7  123.452
 17.5816  15191  123.069
 17.7796  15011.3  122.269
 17.9776  14697.5  121.773
 18.1756  14949.2  121.521
 18.3736  14771.9  121.312
 18.5716  14432.4  119.655
 18.7696  14439.6  119.258
 18.9676  14113.8  117.708
 19.1656  14023.2  117.898
 19.3636  14062  118.259
 19.5616  13761.8  117.151
 19.7596  14082  117.908
 19.9576  14276.6  118.779
 20.1556  14428.1  119.938
 20.3536  13795.2  116.652
 20.5516  13413.6  115.478
 20.7496  13025.8  113.734
 20.9476  12969.2  113.235
 21.1456  13296.1  114.993
 21.3436  12913.7  113.274
 21.5416  12737.7  112.501
 21.7396  12725.7  112.299
 21.9376  12844.3  112.582
 22.1356  12823.6  112.614
 22.3336  12689.8  112.326
 22.5316  12841.7  113.087
 22.7296  12674  111.712
 22.9276  12672.5  112.375
 23.1256  12859.3  112.665
 23.3236  12599.9  112.074
 23.5216  12534.3  111.44
 23.7196  12369.3  110.659
 23.9176  12532  111.128
 24.1156  12171.1  109.992
 24.3136  11728.2  108.756
 24.5116  11752.9  108.405
 24.7096  11603  107.53
 24.9076  11213  105.727
 25.1056  11047.3  105.408
 25.3036  11071.9  105.038
 25.5016  11004.3  104.748
 25.6996  10940.6  104.03
 25.8976  10918.7  104.357
 26.0956  10901.4  104.3
 26.2936  11005.4  104.434
 26.4916  11011.5  104.353
 26.6896  10498.2  102.182
 26.8876  10550.3  102.281
 27.0856  10591.4  102.533
 27.2836  10457.7  101.783
 27.4816  10216.4  100.534
 27.6796  10208.6  100.866
 27.8776  10128.7  100.332
 28.0756  10132.5  100.638
 28.2736  10147.8  100.298
 28.4716  9971.84  99.4732
 28.6696  9735.42  98.1364
 28.8676  9837.95  98.9938
 29.0656  9697.09  98.2615
 29.2636  9696.06  98.0528
 29.4616  9532.79  97.4104
 29.6596  9631.97  97.4825
 29.8576  9434.08  97.1553
 30.0556  9489.5  97.3202
 30.2536  9589.95  97.6228
 30.4516  9561.41  97.1268
 30.6496  9350.41  95.7784
 30.8476  9351.59  96.2249
 31.0456  9196.82  95.3818
 31.2436  9207.13  94.7105
 31.4416  9048.86  94.0729
 31.6396  9187.4  94.8375
 31.8376  9213.66  94.5215
 32.0356  9130.23  94.6563
 32.2336  8963.03  93.1769
 32.4316  8966.26  93.6032
 32.6296  8990.4  93.5671
 32.8276  9025.05  93.5185
 33.0256  8945.08  93.1757
 33.2236  8842.67  92.7878
 33.4216  9018.47  93.3948
 33.6196  8882.69  92.9858
 33.8176  8801.43  92.7214
 34.0156  8673.03  91.661
 34.2136  8644.65  91.5465
 34.4116  8669.37  91.8361
 34.6096  8635.67  91.5308
 34.8076  8461.65  91.0107
 35.0056  8506.21  90.943
 35.2036  8471.43  90.9564
 35.4016  8416.99  90.5975
 35.5996  8436.87  90.7366
 35.7976  8289.77  90.2167
 35.9956  8428.42  90.6068
 36.1936  8253.87  89.5361
 36.3916  8307.33  90.0049
 36.5896  8253.8  90.6769
 36.7876  8219.2  89.9053
 36.9856  8272.87  90.2254
 37.1836  8189.47  88.8727
 37.3816  8221.68  89.4117
 37.5796  8086.58  90.3839
 37.7776  7990.96  88.2284
 37.9756  7936.3  87.8067
 38.1736  8074.13  88.7712
 38.3716  8087.53  89.1199
 38.5696  8002.6  89.0287
 38.7676  7726.11  86.9877
 38.9656  7717  86.5783
 39.1636  7812.17  87.376
 39.3616  7910.58  87.8562
 39.5596  7777.19  87.9353
 39.7576  7808.8  87.5061
 39.9556  7904.87  87.6844
 40.1536  7996.14  88.3925
 40.3516  8064.15  88.7801
 40.5496  7968.53  88.5138
 40.7476  8038.44  88.9092
 40.9456  8032.14  88.6108
 41.1436  7947.37  87.8694
 41.3416  7927.4  88.0947
 41.5396  7900.92  87.7589
 41.7376  7864.15  87.8154
 41.9356  7828.06  87.4716
 42.1336  7840.38  87.6872
 42.3316  7804.9  87.6886
 42.5296  7810.44  87.2326
 42.7276  7781.29  87.3118
 42.9256  7777.98  87.1634
 43.1236  7663.53  86.6294
 43.3216  7763.89  86.945
 43.5196  7590.88  86.0363
 43.7176  7664.19  86.8403
 43.9156  7619.73  86.4987
 44.1136  7423.01  84.9384
 44.3116  7554.94  85.7004
 44.5096  7513.37  85.7761
 44.7076  7530.37  85.8018
 44.9056  7523.74  85.6243
 45.1036  7426.93  84.7025
 45.3016  7293.53  84.4311
 45.4996  7260.91  84.1821
 45.6976  7301.71  84.5955
 45.8956  7332.2  84.5885
 46.0936  7267.48  84.2125
 46.2916  7274.91  84.2425
 46.4896  7294.31  84.3774
 46.6876  7221.14  84.6685
 46.8856  7157.77  83.5649
 47.0836  7076.47  83.3296
 47.2816  7023.88  82.9056
 47.4796  7071.98  83.2909
 47.6776  6959.08  83.5566
 47.8756  6920.01  82.5119
 48.0736  7065.75  83.8234
 48.2716  6877.42  82.5212
 48.4696  6966.34  82.6482
 48.6676  6980.82  83.314
 48.8656  6995.54  83.123
 49.0636  6877.48  82.3724
 49.2616  6771.68  81.7706
 49.4596  6844.97  81.7893
 49.6576  6718.16  81.2511
 49.8556  6678.04  81.025
 50.0536  6775.1  82.0507
 50.2516  6830.87  82.5184
 50.4496  6747.14  81.6702
 50.6476  6762.24  81.4475
 50.8456  6663.14  80.9393
 51.0436  6558.96  80.7395
 51.2416  6549.13  80.3559
 51.4396  6409.57  79.8832
 51.6376  6563.6  80.6694
 51.8356  6543.76  80.1729
 52.0336  6373.81  79.6248
 52.2316  6500.62  80.7617
 52.4296  6369.46  79.6375
 52.6276  6471.86  80.3875
 52.8256  6397.94  79.4873
 53.0236  6252.89  79.2135
 53.2216  6207.67  78.9634
 53.4196  6199.08  78.8306
 53.6176  6250.03  79.6265
 53.8156  6300.14  79.6202
 54.0136  6209.6  79.2245
 54.2116  6197.16  78.8076
 54.4096  6286.03  79.4237
 54.6076  6207.87  79.2709
 54.8056  6185.63  78.9212
 55.0036  6135.55  78.9887
 55.2016  6088.84  78.2364
 55.3996  6144.53  78.5641
 55.5976  6204.24  79.1367
 55.7956  6111.69  78.3587
 55.9936  6067.11  78.2009
 56.1916  6171.8  78.897
 56.3896  6163.53  78.8336
 56.5876  5966.04  78.1006
 56.7856  6081.21  78.3426
 56.9836  6018.48  77.7195
 57.1816  5997.84  77.9575
 57.3796  6118.02  78.5401
 57.5776  6094.95  78.317
 57.7756  6001.06  78.3371
 57.9736  6033.49  78.2337
 58.1716  6013.29  78.3392
 58.3696  6006.09  78.0507
 58.5676  6019.99  77.618
 58.7656  6037.56  78.3988
 58.9636  6218.66  79.6013
 59.1616  6042.1  78.588
 59.3596  6148.25  78.5345
 59.5576  6101.08  78.2894
 59.7556  6178.89  79.2101
 59.9536  6081.32  78.4808
 60.1516  6039.37  79.0585
 60.1996  0.0000000E+00  0.0000000E+00

File: 17_Da_f00096.xye
# /beamlines/bl04/projects/cycle2025-II/20250340211-lsimonelli/DATA/IS17_D/17_Da_f00096.xye : mythproc.py merge -s 0.006 -l 0.5 -f /beamlines/bl04/inhouse/ff/FlatField/ff_20Nov2024rod8mm60s_17keV.raw -b True -c true -o xye /beamlines/bl04/projects/cycle2025-II/20250340211-lsimonelli/DATA/IS17_D/17_Da_00096.dat
# IsMon = [6790500, 6791938, 6791539]  IsPos = [-1.4999, -2.4884, -3.4988]
# Wave = 0.4962  CalPath /beamlines/bl04/projects/cycle2025-II/20250340211-lsimonelli/DATA/Align/Si_Pos1_25keV_f00001.cal
# Date = 2025-09-24_20:19:11 Dt = 4.8000  Bin = 0.0060  <imon> = 6791326 +/- 606 (Min/Max) 6790500 / 6791938
# icurr 252.7250  mocoIn 1.7241E-05  mocoOut 0.8090  i15 7.10783e+06  imon 6.79133e+06  i7 3.6667  iEMpd_timer 4.8000  iEMpd_1 3.5513E-08  iEMpd_2 7.9090E-08  iEMpd_3 1.8656E-08  iEMpd_4 4.7525E-08  iEMhp_timer 4.8000  iEMhp_1 4.9362E-06  iEMhp_2 -2.5784E-08  iEMhp_3 -2.4684E-08  iEMhp_4 -2.1150E-08
#      9776
 1.7416  70879.9  266.325
 1.9396  46139.6  215.147
 2.1376  32943.6  181.797
 2.3356  29529.9  171.759
 2.5336  27367.5  165.933
 2.7316  25708.8  160.928
 2.9296  24829.9  158.321
 3.1276  24286.5  156.131
 3.3256  24029.8  154.961
 3.5236  25763.3  160.253
 3.7216  23575.4  154.547
 3.9196  22990.1  151.843
 4.1176  23022  151.718
 4.3156  24278.5  155.969
 4.5136  26681  162.479
 4.7116  27777  166.928
 4.9096  26999.1  164.012
 5.1076  26804.1  163.999
 5.3056  27149.3  164.779
 5.5036  27040.3  164.337
 5.7016  27520.3  165.762
 5.8996  28027.4  166.484
 6.0976  28704.8  169.939
 6.2956  29072.1  170.354
 6.4936  29782.4  171.609
 6.6916  30069  173.438
 6.8896  30617.9  174.869
 7.0876  31865.6  179.131
 7.2856  31613.2  177.477
 7.4836  32039.3  178.004
 7.6816  32752  180.506
 7.8796  34294.7  184.699
 8.0776  35658  189.316
 8.2756  37497.9  192.739
 8.4736  38033.1  193.917
 8.6716  37380.3  192.88
 8.8696  37298.3  193.161
 9.0676  36280.5  189.864
 9.2656  35454.3  188.37
 9.4636  34977.3  185.507
 9.6616  34119.4  183.998
 9.8596  32931.3  180.231
 10.0576  31146.5  175.937
 10.2556  29943.9  172.943
 10.4536  29392.6  170.949
 10.6516  28451.3  168.382
 10.8496  27467  164.86
 11.0476  26888.3  163.141
 11.2456  26233.2  161.669
 11.4436  26500.2  161.658
 11.6416  26638.1  162.444
 11.8396  24719.3  156.686
 12.0376  24570.9  155.854
 12.2356  24043  154.572
 12.4336  24102.1  154.31
 12.6316  23817  153.662
 12.8296  24001.7  153.895
 13.0276  24704.3  156.307
 13.2256  24612.5  156.38
 13.4236  24527.2  155.882
 13.6216  24502.2  155.82
 13.8196  24448.3  155.416
 14.0176  24166.9  154.805
 14.2156  23495  151.684
 14.4136  22524.7  149.895
 14.6116  22204  148.029
 14.8096  21591.2  145.957
 15.0076  20323.4  145.414
 15.2056  20107  140.447
 15.4036  19013  137.405
 15.6016  18673.8  135.255
 15.7996  18165.3  133.68
 15.9976  17538.7  134.292
 16.1956  16993.6  130.077
 16.3936  16556.5  127.571
 16.5916  16414.7  127.655
 16.7896  16292.4  127.238
 16.9876  16239.7  128.492
 17.1856  16003.4  125.918
 17.3836  15581.2  124.15
 17.5816  15262.6  123.362
 17.7796  15014.1  122.282
 17.9776  14713.5  121.845
 18.1756  14914.7  121.374
 18.3736  14775.7  121.323
 18.5716  14551.8  120.149
 18.7696  14652.1  120.134
 18.9676  14314.6  118.548
 19.1656  14101.1  118.22
 19.3636  14011.7  118.046
 19.5616  13990  118.123
 19.7596  14027.1  117.676
 19.9576  14284.3  118.81
 20.1556  14673.4  120.953
 20.3536  13828.5  116.792
 20.5516  13590.6  116.237
 20.7496  13246.2  114.696
 20.9476  13130.6  113.942
 21.1456  13281.3  114.921
 21.3436  12976.5  113.55
 21.5416  12915.6  113.288
 21.7396  12816.8  112.697
 21.9376  12837.5  112.555
 22.1356  12896.4  112.933
 22.3336  12851.4  113.03
 22.5316  12859.7  113.158
 22.7296  12676  111.696
 22.9276  12647.3  112.26
 23.1256  12778  112.31
 23.3236  12659.4  112.35
 23.5216  12608.3  111.775
 23.7196  12438.7  110.968
 23.9176  12320.2  110.199
 24.1156  12284.9  110.511
 24.3136  11797.6  109.084
 24.5116  11993  109.504
 24.7096  11565  107.354
 24.9076  11286.1  106.075
 25.1056  11196.6  106.12
 25.3036  11056.4  104.961
 25.5016  11064.9  105.034
 25.6996  11228.7  105.388
 25.8976  10951.2  104.515
 26.0956  10989.9  104.719
 26.2936  10996.2  104.396
 26.4916  11031.7  104.441
 26.6896  10734.6  103.324
 26.8876  10611.9  102.584
 27.0856  10654.5  102.836
 27.2836  10439.4  101.69
 27.4816  10273.4  100.814
 27.6796  10198  100.817
 27.8776  10203.6  100.705
 28.0756  10116.5  100.558
 28.2736  10111.7  100.117
 28.4716  9970.94  99.46
 28.6696  9983.43  99.3722
 28.8676  9824.12  98.9255
 29.0656  9719.98  98.3824
 29.2636  9754.96  98.3524
 29.4616  9687.79  98.1928
 29.6596  9755.36  98.0982
 29.8576  9487.24  97.4234
 30.0556  9579.39  97.7631
 30.2536  9729.96  98.3301
 30.4516  9451.81  96.5747
 30.6496  9478.57  96.4347
 30.8476  9454.38  96.7551
 31.0456  9372.31  96.2963
 31.2436  9342  95.4066
 31.4416  9202.12  94.8625
 31.6396  9373.01  95.7918
 31.8376  9325.06  95.087
 32.0356  9062.9  94.3072
 32.2336  8974.85  93.2413
 32.4316  9059.13  94.0829
 32.6296  8990.33  93.562
 32.8276  9007.07  93.4282
 33.0256  8920.87  93.0536
 33.2236  8882.97  93.0019
 33.4216  9018  93.3979
 33.6196  8943.66  93.302
 33.8176  8883.55  93.1523
 34.0156  8864.69  92.6659
 34.2136  8647.32  91.5628
 34.4116  8630.21  91.618
 34.6096  8652.16  91.6176
 34.8076  8555.02  91.5071
 35.0056  8580.3  91.334
 35.2036  8595.62  91.6195
 35.4016  8531.25  91.208
 35.5996  8341.42  90.2208
 35.7976  8338.31  90.4776
 35.9956  8519.71  91.1003
 36.1936  8263.2  89.5898
 36.3916  8374.04  90.3658
 36.5896  8315.06  91.0178
 36.7876  8307.54  90.3793
 36.9856  8162.48  89.613
 37.1836  8176.39  88.7957
 37.3816  8234.09  89.4748
 37.5796  8094.02  90.4284
 37.7776  8066.33  88.6567
 37.9756  8082.68  88.6242
 38.1736  8177.82  89.3401
 38.3716  8027.7  88.7934
 38.5696  8033.48  89.2044
 38.7676  7814.99  87.4885
 38.9656  8055.86  88.4604
 39.1636  7855.6  87.6177
 39.3616  7974.28  88.2068
 39.5596  7827.03  88.228
 39.7576  7872.34  87.8633
 39.9556  7960.86  87.9988
 40.1536  8048.96  88.6874
 40.3516  8059.99  88.7567
 40.5496  7985.18  88.5998
 40.7476  8076.12  89.1113
 40.9456  8089.58  88.9312
 41.1436  8066.56  88.5284
 41.3416  7946.96  88.2031
 41.5396  7926.65  87.8988
 41.7376  7890.77  87.9636
 41.9356  7759.73  87.0908
 42.1336  7809.44  87.5167
 42.3316  7829.29  87.8263
 42.5296  7837.21  87.3874
 42.7276  7865.75  87.7872
 42.9256  7878.51  87.7272
 43.1236  7675.38  86.6964
 43.3216  7835.01  87.3425
 43.5196  7619.27  86.1971
 43.7176  7684.75  86.9523
 43.9156  7607.51  86.4275
 44.1136  7485.19  85.2881
 44.3116  7627.52  86.1097
 44.5096  7527.09  85.8476
 44.7076  7509.02  85.675
 44.9056  7522.5  85.6215
 45.1036  7515.94  85.2123
 45.3016  7408.04  85.0945
 45.4996  7218.68  83.9408
 45.6976  7258.72  84.3476
 45.8956  7403.25  84.9994
 46.0936  7356.58  84.7349
 46.2916  7307.91  84.4275
 46.4896  7440.62  85.2316
 46.6876  7201.74  84.552
 46.8856  7169.95  83.6273
 47.0836  7212.08  84.1289
 47.2816  7086.21  83.2699
 47.4796  7146.66  83.7202
 47.6776  7057.95  84.1404
 47.8756  7077.29  83.4408
 48.0736  7141.1  84.2707
 48.2716  6920.76  82.7796
 48.4696  7100.81  83.4466
 48.6676  6963.98  83.2189
 48.8656  6943.36  82.8126
 49.0636  6991.67  83.0491
 49.2616  6839.1  82.1894
 49.4596  6843.82  81.7839
 49.6576  6862.83  82.1159
 49.8556  6711.28  81.2247
 50.0536  6769.09  82.0198
 50.2516  6822.07  82.4701
 50.4496  6690.2  81.3252
 50.6476  6752.41  81.3929
 50.8456  6738.62  81.3996
 51.0436  6662.49  81.3704
 51.2416  6615.92  80.7579
 51.4396  6405.89  79.8575
 51.6376  6476.14  80.1225
 51.8356  6474.8  79.752
 52.0336  6448.31  80.0907
 52.2316  6424.18  80.2873
 52.4296  6466.56  80.2473
 52.6276  6458.85  80.3175
 52.8256  6530.48  80.3203
 53.0236  6269.96  79.3273
 53.2216  6373.04  80.0104
 53.4196  6289.73  79.4109
 53.6176  6344.19  80.228
 53.8156  6229.29  79.1749
 54.0136  6258.86  79.5338
 54.2116  6297.25  79.4419
 54.4096  6331.06  79.7045
 54.6076  6206.99  79.2685
 54.8056  6174.68  78.8467
 55.0036  6158.96  79.1347
 55.2016  6209.25  79.0096
 55.3996  6170.28  78.731
 55.5976  6185.63  79.0172
 55.7956  6182.52  78.8119
 55.9936  6176.81  78.9123
 56.1916  6067.4  78.2198
 56.3896  6198.15  79.0555
 56.5876  6134.94  79.2006
 56.7856  6131.19  78.6586
 56.9836  5996.73  77.5817
 57.1816  6163.35  79.0307
 57.3796  6232.58  79.2706
 57.5776  6183.73  78.8906
 57.7756  6107.08  79.0328
 57.9736  6107.09  78.7041
 58.1716  6163.52  79.3127
 58.3696  6046.39  78.2992
 58.5676  6154.52  78.4654
 58.7656  6068.21  78.5922
 58.9636  6233.44  79.6927
 59.1616  6087.44  78.8848
 59.3596  6266.54  79.2842
 59.5576  6214.25  79.0102
 59.7556  6051.54  78.3876
 59.9536  6160.99  78.9912
 60.1516  6075.78  79.2944
 60.1996  0.0000000E+00  0.0000000E+00