Folder: echemistpy/docs/examples/opeando_xrd/IS17_D/Data/IS17_D (part 31)

File: 17_Da_f00081.xye
# /beamlines/bl04/projects/cycle2025-II/20250340211-lsimonelli/DATA/IS17_D/17_Da_f00081.xye : mythproc.py merge -s 0.006 -l 0.5 -f /beamlines/bl04/inhouse/ff/FlatField/ff_20Nov2024rod8mm60s_17keV.raw -b True -c true -o xye /beamlines/bl04/projects/cycle2025-II/20250340211-lsimonelli/DATA/IS17_D/17_Da_00081.dat
# IsMon = [6769774, 6769333, 6767582]  IsPos = [-1.4999, -2.4884, -3.4988]
# Wave = 0.4962  CalPath /beamlines/bl04/projects/cycle2025-II/20250340211-lsimonelli/DATA/Align/Si_Pos1_25keV_f00001.cal
# Date = 2025-09-24_16:07:48 Dt = 4.8000  Bin = 0.0060  <imon> = 6768896 +/- 947 (Min/Max) 6767582 / 6769774
# icurr 250.8187  mocoIn 1.7107E-05  mocoOut 0.8023  i15 7.08438e+06  imon 6.7689e+06  i7 7.6667  iEMpd_timer 4.8000  iEMpd_1 3.3780E-08  iEMpd_2 7.7656E-08  iEMpd_3 1.6729E-08  iEMpd_4 4.6972E-08  iEMhp_timer 4.8000  iEMhp_1 4.8981E-06  iEMhp_2 -2.4454E-08  iEMhp_3 -2.4423E-08  iEMhp_4 -2.1159E-08
#      9776
 1.7416  69228.3  263.171
 1.9396  45515  213.662
 2.1376  31885  178.83
 2.3356  28757.8  169.477
 2.5336  27409.4  166.039
 2.7316  25075  158.927
 2.9296  23796.5  154.983
 3.1276  23443.9  153.385
 3.3256  22977.1  151.524
 3.5236  24798.2  157.222
 3.7216  23238.4  153.438
 3.9196  22741.2  151.019
 4.1176  22403.7  149.662
 4.3156  23556.1  153.636
 4.5136  26306.3  161.335
 4.7116  27245.4  165.322
 4.9096  26429  162.269
 5.1076  26239.7  162.258
 5.3056  26520.3  162.866
 5.5036  26254.4  161.932
 5.7016  26641.1  163.092
 5.8996  27450.9  164.763
 6.0976  28157.7  168.304
 6.2956  28589.1  168.935
 6.4936  29081.3  169.576
 6.6916  29634.3  172.18
 6.8896  30380  174.195
 7.0876  31287.7  177.5
 7.2856  31310.3  176.625
 7.4836  31650.9  176.922
 7.6816  32462.5  179.709
 7.8796  34078.6  184.127
 8.0776  37178.7  193.32
 8.2756  37614.1  193.052
 8.4736  38100.1  194.1
 8.6716  37318.2  192.732
 8.8696  37618.2  193.979
 9.0676  36540.5  190.537
 9.2656  35136.8  187.527
 9.4636  34758  184.947
 9.6616  34249.5  184.355
 9.8596  32860.6  180.024
 10.0576  31294.2  176.342
 10.2556  29824.1  172.583
 10.4536  31102.6  175.842
 10.6516  32635.3  180.339
 10.8496  27897.4  166.148
 11.0476  27574.3  165.212
 11.2456  28496.5  168.507
 11.4436  26825.3  162.65
 11.6416  25961  160.367
 11.8396  24769.4  156.843
 12.0376  24591.5  155.923
 12.2356  25147.2  158.084
 12.4336  24589.9  155.858
 12.6316  23672.7  153.192
 12.8296  24002.7  153.898
 13.0276  24696.9  156.29
 13.2256  24570  156.253
 13.4236  24547.9  155.95
 13.6216  24408.4  155.518
 13.8196  24725.7  156.293
 14.0176  24065.7  154.485
 14.2156  23617.1  152.077
 14.4136  22181  148.746
 14.6116  22049.8  147.515
 14.8096  21417.6  145.376
 15.0076  20189.2  144.945
 15.2056  19742.1  139.178
 15.4036  19116.4  137.788
 15.6016  18584.7  134.939
 15.7996  18249.4  134.001
 15.9976  17356.2  133.612
 16.1956  16984.9  130.042
 16.3936  16622.5  127.824
 16.5916  16519.5  128.063
 16.7896  16393.7  127.63
 16.9876  16281.7  128.648
 17.1856  16145.8  126.472
 17.3836  15472  123.704
 17.5816  15093.5  122.671
 17.7796  15197.7  123.023
 17.9776  15053.6  123.242
 18.1756  15504.4  123.756
 18.3736  15614  124.718
 18.5716  14550.1  120.143
 18.7696  14730.5  120.453
 18.9676  14222.6  118.162
 19.1656  14190.9  118.603
 19.3636  14089.6  118.373
 19.5616  13943.6  117.927
 19.7596  14038.8  117.732
 19.9576  14463.7  119.553
 20.1556  14051.5  118.363
 20.3536  13590.9  115.789
 20.5516  13439.1  115.584
 20.7496  13110.2  114.103
 20.9476  13332.8  114.812
 21.1456  13586.3  116.238
 21.3436  12935.9  113.37
 21.5416  13131  114.218
 21.7396  12711.8  112.235
 21.9376  12750.8  112.172
 22.1356  12970.4  113.253
 22.3336  12887.4  113.195
 22.5316  12754.3  112.689
 22.7296  12669.7  111.69
 22.9276  12465.7  111.457
 23.1256  12875.2  112.748
 23.3236  12601.2  112.088
 23.5216  12490.2  111.249
 23.7196  12504.4  111.265
 23.9176  12320.7  110.189
 24.1156  12230.7  110.267
 24.3136  11967.6  109.862
 24.5116  11961.3  109.358
 24.7096  11600.2  107.511
 24.9076  11462  106.895
 25.1056  11113.5  105.719
 25.3036  11207  105.673
 25.5016  11282.2  106.061
 25.6996  11150.2  105.024
 25.8976  11186.9  105.631
 26.0956  11065  105.081
 26.2936  11020.1  104.509
 26.4916  10885.7  103.756
 26.6896  10652.8  102.931
 26.8876  10609.9  102.575
 27.0856  10648.2  102.819
 27.2836  10400.1  101.5
 27.4816  10426.3  101.56
 27.6796  10307.5  101.358
 27.8776  10373.3  101.536
 28.0756  10397.6  101.948
 28.2736  10186  100.485
 28.4716  9984.58  99.5332
 28.6696  10073.6  99.823
 28.8676  9852.86  99.0708
 29.0656  9689.97  98.2303
 29.2636  9814.66  98.6482
 29.4616  9607.58  97.7916
 29.6596  9809.84  98.3781
 29.8576  9626.08  98.1403
 30.0556  9620.31  97.9828
 30.2536  9779.04  98.5841
 30.4516  9532.8  96.9867
 30.6496  9567.74  96.888
 30.8476  9520.68  97.0959
 31.0456  9209.43  95.451
 31.2436  9234.09  94.8514
 31.4416  9265.37  95.1864
 31.6396  9431.18  96.0844
 31.8376  9312.21  95.0246
 32.0356  9094.55  94.4686
 32.2336  9099.33  93.8774
 32.4316  9125.08  94.4267
 32.6296  9011.49  93.6717
 32.8276  9009.52  93.4342
 33.0256  8860.22  92.7372
 33.2236  8914.64  93.1651
 33.4216  8979.87  93.1976
 33.6196  8878.18  92.9566
 33.8176  8920.82  93.35
 34.0156  8754.5  92.0846
 34.2136  8687.51  91.7739
 34.4116  8645.03  91.7036
 34.6096  8681.4  91.7728
 34.8076  8628.74  91.9059
 35.0056  8634.35  91.6251
 35.2036  8638.53  91.8567
 35.4016  8573.03  91.4315
 35.5996  8444.77  90.779
 35.7976  8392.22  90.772
 35.9956  8380.39  90.3562
 36.1936  8427.89  90.4795
 36.3916  8364.02  90.3111
 36.5896  8394.6  91.4469
 36.7876  8407.86  90.9302
 36.9856  8212.48  89.8961
 37.1836  8227.74  89.0797
 37.3816  8261.3  89.6293
 37.5796  8134.69  90.6582
 37.7776  8021.88  88.4004
 37.9756  8065.87  88.5302
 38.1736  8221.78  89.5774
 38.3716  7992.1  88.5969
 38.5696  8134.82  89.762
 38.7676  7853.19  87.6954
 38.9656  7946.36  87.8522
 39.1636  7899.33  87.8506
 39.3616  7985.55  88.2674
 39.5596  7862.81  88.4312
 39.7576  7885.32  87.9315
 39.9556  7935.85  87.8585
 40.1536  7996.99  88.3995
 40.3516  7994.36  88.3905
 40.5496  7991.02  88.6392
 40.7476  8090.82  89.1962
 40.9456  8044.04  88.6829
 41.1436  7993.73  88.124
 41.3416  7954.59  88.2474
 41.5396  7862.52  87.5438
 41.7376  7982.67  88.473
 41.9356  7820.45  87.4299
 42.1336  7966.61  88.3875
 42.3316  7908.08  88.269
 42.5296  7996.01  88.2657
 42.7276  7853.88  87.7171
 42.9256  7938.44  88.0604
 43.1236  7818.23  87.4988
 43.3216  7806.61  87.1848
 43.5196  7718.06  86.7493
 43.7176  7655.43  86.7905
 43.9156  7573.36  86.2389
 44.1136  7627.48  86.0994
 44.3116  7577.59  85.8362
 44.5096  7632.59  86.4487
 44.7076  7472.74  85.4731
 44.9056  7543.75  85.7436
 45.1036  7516.92  85.2169
 45.3016  7464.41  85.4194
 45.4996  7413.24  85.064
 45.6976  7182.65  83.9059
 45.8956  7383.27  84.8793
 46.0936  7435.09  85.1783
 46.2916  7305.65  84.4163
 46.4896  7280.98  84.3041
 46.6876  7258.34  84.8697
 46.8856  7203.71  83.8299
 47.0836  7154.28  83.7848
 47.2816  7056.51  83.097
 47.4796  7163.32  83.8239
 47.6776  7024.75  83.9483
 47.8756  6985  82.8972
 48.0736  7116.99  84.1324
 48.2716  6938.66  82.8891
 48.4696  7047.32  83.127
 48.6676  6983.81  83.3254
 48.8656  6973.45  82.994
 49.0636  7030.33  83.2764
 49.2616  6768.43  81.7627
 49.4596  6974.42  82.5616
 49.6576  6843.73  81.9866
 49.8556  6843.55  82.022
 50.0536  6840.33  82.4483
 50.2516  6781.58  82.2239
 50.4496  6786.24  81.9057
 50.6476  6795.99  81.6534
 50.8456  6796.37  81.7353
 51.0436  6571.01  80.813
 51.2416  6553.56  80.3887
 51.4396  6509.38  80.5034
 51.6376  6560.71  80.6452
 51.8356  6604.27  80.5383
 52.0336  6450.44  80.1055
 52.2316  6498.12  80.745
 52.4296  6556.34  80.789
 52.6276  6435.16  80.1604
 52.8256  6504.91  80.1643
 53.0236  6363.93  79.9128
 53.2216  6300.09  79.5468
 53.4196  6322.44  79.6127
 53.6176  6384.25  80.475
 53.8156  6348.79  79.9263
 54.0136  6329.11  79.9848
 54.2116  6275.54  79.3038
 54.4096  6319.04  79.6283
 54.6076  6275.02  79.7006
 54.8056  6266.57  79.4346
 55.0036  6221.81  79.5407
 55.2016  6236.31  79.1803
 55.3996  6216.32  79.0247
 55.5976  6171.43  78.9247
 55.7956  6231.19  79.1251
 55.9936  6107.2  78.4584
 56.1916  6207.81  79.122
 56.3896  6137.45  78.6683
 56.5876  6088.4  78.9005
 56.7856  6018.5  77.9396
 56.9836  6072.92  78.0705
 57.1816  6139.78  78.8739
 57.3796  6182.18  78.9467
 57.5776  6125.09  78.5146
 57.7756  6109.63  79.0522
 57.9736  6016.03  78.119
 58.1716  6136.3  79.1365
 58.3696  6075.5  78.4997
 58.5676  6151.51  78.4647
 58.7656  6155.9  79.1676
 58.9636  6215.46  79.5822
 59.1616  6231.95  79.8207
 59.3596  6180.79  78.749
 59.5576  6305.26  79.5956
 59.7556  6125.79  78.876
 59.9536  6176.21  79.0976
 60.1516  6259.82  80.4954
 60.1996  0.0000000E+00  0.0000000E+00

File: 17_Da_f00082.xye
# /beamlines/bl04/projects/cycle2025-II/20250340211-lsimonelli/DATA/IS17_D/17_Da_f00082.xye : mythproc.py merge -s 0.006 -l 0.5 -f /beamlines/bl04/inhouse/ff/FlatField/ff_20Nov2024rod8mm60s_17keV.raw -b True -c true -o xye /beamlines/bl04/projects/cycle2025-II/20250340211-lsimonelli/DATA/IS17_D/17_Da_00082.dat
# IsMon = [6775995, 6776590, 6778178]  IsPos = [-1.4999, -2.4884, -3.4988]
# Wave = 0.4962  CalPath /beamlines/bl04/projects/cycle2025-II/20250340211-lsimonelli/DATA/Align/Si_Pos1_25keV_f00001.cal
# Date = 2025-09-24_16:24:24 Dt = 4.8000  Bin = 0.0060  <imon> = 6776921 +/- 921 (Min/Max) 6775995 / 6778178
# icurr 251.5898  mocoIn 1.7155E-05  mocoOut 0.8052  i15 7.09298e+06  imon 6.77692e+06  i7 4.3333  iEMpd_timer 4.8000  iEMpd_1 3.2109E-08  iEMpd_2 7.8298E-08  iEMpd_3 1.6332E-08  iEMpd_4 4.7751E-08  iEMhp_timer 4.8000  iEMhp_1 4.9143E-06  iEMhp_2 -2.5550E-08  iEMhp_3 -2.3939E-08  iEMhp_4 -2.0800E-08
#      9776
 1.7416  69822.5  264.333
 1.9396  45205.7  212.966
 2.1376  32106.9  179.475
 2.3356  28978.7  170.15
 2.5336  27431.6  166.128
 2.7316  25239.7  159.459
 2.9296  24192.4  156.282
 3.1276  23639.4  154.041
 3.3256  23378  152.854
 3.5236  25179.2  158.438
 3.7216  22953.5  152.495
 3.9196  22621.9  150.624
 4.1176  22570.3  150.221
 4.3156  23816  154.471
 4.5136  26509.2  161.959
 4.7116  27315.5  165.541
 4.9096  26611  162.822
 5.1076  26405.7  162.776
 5.3056  26862.8  163.903
 5.5036  26537.6  162.804
 5.7016  27141.1  164.616
 5.8996  27655.9  165.383
 6.0976  28318.4  168.792
 6.2956  28810.5  169.587
 6.4936  29441.7  170.623
 6.6916  29747.3  172.508
 6.8896  30586.8  174.786
 7.0876  31724.3  178.734
 7.2856  31399.3  176.875
 7.4836  31997.7  177.886
 7.6816  32607.6  180.106
 7.8796  33986  183.866
 8.0776  36511.3  191.566
 8.2756  37804.4  193.52
 8.4736  38180.5  194.29
 8.6716  37457.5  193.078
 8.8696  37780.5  194.395
 9.0676  37009.7  191.752
 9.2656  35509.3  188.514
 9.4636  35186.8  186.058
 9.6616  34123.3  184
 9.8596  33173.8  180.898
 10.0576  31232.1  176.192
 10.2556  30232.1  173.778
 10.4536  30802.6  175.007
 10.6516  32451.2  179.847
 10.8496  28013.2  166.49
 11.0476  27450.6  164.836
 11.2456  28085.4  167.288
 11.4436  26828.6  162.662
 11.6416  26181.1  161.047
 11.8396  24767.5  156.839
 12.0376  24731.9  156.361
 12.2356  24954.1  157.477
 12.4336  24493  155.55
 12.6316  24001.5  154.255
 12.8296  24303.7  154.859
 13.0276  24846.7  156.758
 13.2256  24449.1  155.869
 13.4236  24690.1  156.399
 13.6216  24472.2  155.725
 13.8196  24889  156.812
 14.0176  24213.4  154.957
 14.2156  23712  152.382
 14.4136  22463.6  149.689
 14.6116  22151  147.85
 14.8096  21623.7  146.061
 15.0076  20407.6  145.728
 15.2056  19994.2  140.054
 15.4036  18938.8  137.139
 15.6016  18819.5  135.781
 15.7996  18253.1  133.997
 15.9976  17446.8  133.94
 16.1956  16973.9  129.996
 16.3936  16761.9  128.355
 16.5916  16559.2  128.212
 16.7896  16401.2  127.657
 16.9876  16232.8  128.464
 17.1856  16027.3  126.019
 17.3836  15561.2  124.075
 17.5816  15309.7  123.558
 17.7796  15130.1  122.764
 17.9776  15156.7  123.665
 18.1756  15426.5  123.434
 18.3736  15606.1  124.683
 18.5716  14790.6  121.132
 18.7696  14869.1  121.017
 18.9676  14238.7  118.23
 19.1656  14265.6  118.9
 19.3636  14129.8  118.546
 19.5616  14241.1  119.169
 19.7596  14204.1  118.424
 19.9576  14636.6  120.266
 20.1556  14030.4  118.271
 20.3536  13695.6  116.222
 20.5516  13293.6  114.959
 20.7496  13143.8  114.246
 20.9476  13311.8  114.725
 21.1456  13520.7  115.955
 21.3436  13190.9  114.486
 21.5416  12933.3  113.353
 21.7396  12766.3  112.473
 21.9376  12908.8  112.857
 22.1356  13071.9  113.699
 22.3336  13016.1  113.755
 22.5316  12722.9  112.543
 22.7296  12805.7  112.275
 22.9276  12667.3  112.348
 23.1256  13018.8  113.358
 23.3236  12655.2  112.332
 23.5216  12555.2  111.54
 23.7196  12524  111.352
 23.9176  12475  110.888
 24.1156  12238.5  110.299
 24.3136  11922.3  109.663
 24.5116  11919.5  109.174
 24.7096  11641.2  107.712
 24.9076  11509.3  107.122
 25.1056  11265.6  106.45
 25.3036  11321.8  106.218
 25.5016  11202.3  105.689
 25.6996  11327.2  105.854
 25.8976  11131.6  105.374
 26.0956  11237  105.887
 26.2936  10955.1  104.199
 26.4916  11174.6  105.123
 26.6896  10811.4  103.692
 26.8876  10634  102.695
 27.0856  10758.8  103.347
 27.2836  10461.7  101.802
 27.4816  10595.5  102.38
 27.6796  10448.1  102.045
 27.8776  10396.1  101.654
 28.0756  10323.6  101.582
 28.2736  10315  101.12
 28.4716  9991.11  99.5674
 28.6696  10021.8  99.5648
 28.8676  9865.61  99.1328
 29.0656  9754.39  98.5535
 29.2636  9744.11  98.2934
 29.4616  9829.46  98.9065
 29.6596  9767.86  98.1591
 29.8576  9518.66  97.5841
 30.0556  9818.11  98.9768
 30.2536  9731.65  98.3385
 30.4516  9657.41  97.616
 30.6496  9610.75  97.1051
 30.8476  9499.07  96.9823
 31.0456  9479.87  96.8469
 31.2436  9386.7  95.637
 31.4416  9191.26  94.8165
 31.6396  9425.84  96.0648
 31.8376  9371.32  95.3343
 32.0356  9280.24  95.4348
 32.2336  9124.4  94.0175
 32.4316  9063.69  94.1092
 32.6296  9126.54  94.268
 32.8276  9167.91  94.2558
 33.0256  8929.84  93.1005
 33.2236  8911.02  93.1463
 33.4216  9013.97  93.3756
 33.6196  8870.65  92.9207
 33.8176  8972.21  93.6069
 34.0156  8842.87  92.5503
 34.2136  8734.45  92.0225
 34.4116  8738.4  92.1975
 34.6096  8694.49  91.8467
 34.8076  8573.15  91.6021
 35.0056  8647.42  91.6944
 35.2036  8580.36  91.5417
 35.4016  8603.18  91.584
 35.5996  8500.5  91.0759
 35.7976  8421.3  90.927
 35.9956  8547.93  91.2531
 36.1936  8363.33  90.1276
 36.3916  8361.94  90.2986
 36.5896  8364.67  91.2866
 36.7876  8348.7  90.6034
 36.9856  8348.6  90.6304
 37.1836  8356.04  89.7656
 37.3816  8393.96  90.3362
 37.5796  8143.75  90.6992
 37.7776  8068.16  88.6644
 37.9756  8131  88.8855
 38.1736  8298.75  89.9988
 38.3716  8162.45  89.531
 38.5696  8190.95  90.0735
 38.7676  7780.9  87.3018
 38.9656  8005.86  88.187
 39.1636  7860.1  87.6381
 39.3616  7951.92  88.0879
 39.5596  7864.83  88.4456
 39.7576  7910.78  88.0791
 39.9556  7986.92  88.1358
 40.1536  8140.43  89.1838
 40.3516  8101.23  88.9788
 40.5496  8027.16  88.8295
 40.7476  8042.15  88.9175
 40.9456  8162.08  89.3221
 41.1436  8014.63  88.2427
 41.3416  8012.07  88.5632
 41.5396  7989.1  88.2478
 41.7376  7977.01  88.4448
 41.9356  7860.22  87.6532
 42.1336  7919.61  88.1318
 42.3316  7839.14  87.8815
 42.5296  7829.69  87.3453
 42.7276  7978.16  88.4105
 42.9256  7866.82  87.6637
 43.1236  7787.13  87.3252
 43.3216  7904.72  87.7312
 43.5196  7705.1  86.6815
 43.7176  7750.5  87.3259
 43.9156  7613.19  86.4565
 44.1136  7609.71  85.9941
 44.3116  7626.14  86.0969
 44.5096  7574.02  86.1146
 44.7076  7579.17  86.074
 44.9056  7466.53  85.2998
 45.1036  7524.02  85.2509
 45.3016  7359.77  84.8154
 45.4996  7504.47  85.5838
 45.6976  7266.73  84.3907
 45.8956  7432  85.1675
 46.0936  7424.77  85.1271
 46.2916  7432.38  85.1533
 46.4896  7410.85  85.0541
 46.6876  7242.58  84.794
 46.8856  7244.77  84.0676
 47.0836  7184.12  83.9652
 47.2816  7156.44  83.6836
 47.4796  7155.29  83.7748
 47.6776  7033.08  84.0032
 47.8756  7134.81  83.7762
 48.0736  7135.42  84.2381
 48.2716  6923.93  82.8037
 48.4696  7073.47  83.2815
 48.6676  6983.49  83.3286
 48.8656  7050.16  83.4591
 49.0636  7031.06  83.2903
 49.2616  6861.22  82.3171
 49.4596  6877.72  81.9788
 49.6576  6770.73  81.5674
 49.8556  6883.8  82.2638
 50.0536  6944.29  83.074
 50.2516  6875.77  82.7935
 50.4496  6780.65  81.8761
 50.6476  6781.99  81.5711
 50.8456  6733.19  81.3568
 51.0436  6628.21  81.1605
 51.2416  6574.93  80.5067
 51.4396  6576.19  80.914
 51.6376  6556.77  80.6223
 51.8356  6625.34  80.6756
 52.0336  6557.97  80.7656
 52.2316  6413.91  80.2224
 52.4296  6507.72  80.4902
 52.6276  6473.11  80.3952
 52.8256  6483.84  80.0314
 53.0236  6379.49  80.0194
 53.2216  6415.57  80.2797
 53.4196  6290.37  79.4142
 53.6176  6338.91  80.1973
 53.8156  6253.34  79.3258
 54.0136  6410.44  80.4928
 54.2116  6253.8  79.168
 54.4096  6388.54  80.065
 54.6076  6177.68  79.0811
 54.8056  6180.74  78.8895
 55.0036  6216.73  79.5083
 55.2016  6238.17  79.1955
 55.3996  6273.37  79.3826
 55.5976  6267.41  79.536
 55.7956  6205.46  78.9558
 55.9936  6130.77  78.6161
 56.1916  6168.28  78.8725
 56.3896  6174.38  78.9028
 56.5876  6194.47  79.5835
 56.7856  6138.16  78.7083
 56.9836  6124.03  78.3987
 57.1816  6235.87  79.4923
 57.3796  6209.41  79.1232
 57.5776  6174.44  78.8262
 57.7756  6060.43  78.7245
 57.9736  6084.54  78.56
 58.1716  6126.48  79.0748
 58.3696  5961.7  77.7551
 58.5676  6164.68  78.5459
 58.7656  6193.19  79.395
 58.9636  6159.5  79.2184
 59.1616  6249.82  79.9187
 59.3596  6288.42  79.4153
 59.5576  6157.56  78.6429
 59.7556  6235.72  79.5654
 59.9536  6302.2  79.8851
 60.1516  6225.56  80.2596
 60.1996  0.0000000E+00  0.0000000E+00