Folder: echemistpy/docs/examples/opeando_xrd/IS17_D/Data/IS17_D (part 110)

File: 17_Db_f00129.xye
# /beamlines/bl04/projects/cycle2025-II/20250340211-lsimonelli/DATA/IS17_D/17_Db_f00129.xye : mythproc.py merge -s 0.006 -l 0.5 -f /beamlines/bl04/inhouse/ff/FlatField/ff_20Nov2024rod8mm60s_17keV.raw -b True -c true -o xye /beamlines/bl04/projects/cycle2025-II/20250340211-lsimonelli/DATA/IS17_D/17_Db_00129.dat
# IsMon = [6783382, 6781756, 6782594]  IsPos = [-1.4999, -2.4885, -3.4986]
# Wave = 0.4962  CalPath /beamlines/bl04/projects/cycle2025-II/20250340211-lsimonelli/DATA/Align/Si_Pos1_25keV_f00001.cal
# Date = 2025-09-25_05:39:41 Dt = 4.8000  Bin = 0.0060  <imon> = 6782577 +/- 664 (Min/Max) 6781756 / 6783382
# icurr 252.6617  mocoIn 1.7236E-05  mocoOut 0.8086  i15 7.1044e+06  imon 6.78258e+06  i7 4.3333  iEMpd_timer 4.8000  iEMpd_1 3.5855E-08  iEMpd_2 8.0400E-08  iEMpd_3 1.8769E-08  iEMpd_4 4.8972E-08  iEMhp_timer 4.8000  iEMhp_1 4.9347E-06  iEMhp_2 -2.5686E-08  iEMhp_3 -2.4792E-08  iEMhp_4 -2.1529E-08
#      9776
 1.7416  70739  266.029
 1.9396  49063.1  221.842
 2.1376  35905.1  189.77
 2.3356  32169.4  179.249
 2.5336  29589.4  172.516
 2.7316  27094.3  165.211
 2.9296  25972.7  161.906
 3.1276  25590.2  160.252
 3.3256  24751.7  157.267
 3.5236  26635.7  163.09
 3.7216  24391.4  157.187
 3.9196  23905.8  154.811
 4.1176  23841.6  154.379
 4.3156  24695.3  157.303
 4.5136  27115.7  163.798
 4.7116  28197.4  168.182
 4.9096  27493.6  165.5
 5.1076  27065.6  164.787
 5.3056  27384.2  165.359
 5.5036  26825.1  163.705
 5.7016  27556  165.862
 5.8996  28270.7  167.223
 6.0976  29111.4  171.122
 6.2956  29027.2  170.218
 6.4936  29855.5  171.81
 6.6916  30165.9  173.704
 6.8896  31049  176.07
 7.0876  31966.2  179.409
 7.2856  31843.3  178.105
 7.4836  32283.4  178.676
 7.6816  33133.6  181.512
 7.8796  33879.3  183.577
 8.0776  35719.9  189.493
 8.2756  37133.9  191.817
 8.4736  38092.8  194.085
 8.6716  37319.6  192.731
 8.8696  38208.4  195.51
 9.0676  37257.4  192.378
 9.2656  36067.6  189.989
 9.4636  35359.9  186.557
 9.6616  34693.1  185.529
 9.8596  33875.8  182.774
 10.0576  31981.4  178.276
 10.2556  31104.9  176.264
 10.4536  30428.8  173.93
 10.6516  29672.8  171.963
 10.8496  28249  167.196
 11.0476  27309.6  164.367
 11.2456  27114.8  164.367
 11.4436  27721.3  165.346
 11.6416  26511.7  162.04
 11.8396  25404.6  158.823
 12.0376  24787.4  156.518
 12.2356  24403.5  155.755
 12.4336  24501.2  155.575
 12.6316  24375.1  155.443
 12.8296  24607.3  155.795
 13.0276  24783.7  156.559
 13.2256  24760.2  156.854
 13.4236  24701.1  156.438
 13.6216  24954.8  157.226
 13.8196  27271.2  163.808
 14.0176  24085.6  154.554
 14.2156  23605.1  152.029
 14.4136  22614.2  150.194
 14.6116  22200.1  147.993
 14.8096  21447.7  145.453
 15.0076  20471.4  146.008
 15.2056  19607  138.697
 15.4036  18591.3  135.881
 15.6016  18229.7  133.647
 15.7996  17836.5  132.47
 15.9976  17606.6  134.518
 16.1956  17303.4  131.229
 16.3936  16916.1  128.921
 16.5916  16641.1  128.514
 16.7896  16788.8  129.139
 16.9876  16532.2  129.619
 17.1856  16153.5  126.512
 17.3836  15792.2  124.995
 17.5816  15582.3  124.645
 17.7796  15473  124.122
 17.9776  15072.2  123.301
 18.1756  15284.9  122.894
 18.3736  14913.2  121.888
 18.5716  14682.2  120.679
 18.7696  14702.2  120.319
 18.9676  14600.3  119.703
 19.1656  14056.9  118.041
 19.3636  14236.5  118.992
 19.5616  14025  118.274
 19.7596  14549  119.85
 19.9576  15041.5  121.911
 20.1556  14132.3  118.694
 20.3536  13731.6  116.386
 20.5516  13545.3  116.027
 20.7496  13399.8  115.348
 20.9476  13384.1  115.032
 21.1456  13237.4  114.733
 21.3436  13155.1  114.318
 21.5416  13005.9  113.688
 21.7396  12887.4  113.011
 21.9376  12825.5  112.511
 22.1356  12915  112.907
 22.3336  12595.6  111.89
 22.5316  12587.2  111.964
 22.7296  12547  111.155
 22.9276  12511.3  111.662
 23.1256  12781.2  112.333
 23.3236  12575  111.985
 23.5216  12701.4  112.176
 23.7196  12658.8  111.948
 23.9176  12741.3  112.056
 24.1156  12381.8  110.922
 24.3136  12177  110.814
 24.5116  12262.9  110.723
 24.7096  11843.5  108.619
 24.9076  11738.4  108.172
 25.1056  11372.1  106.665
 25.3036  11246.5  105.854
 25.5016  11094  105.165
 25.6996  11198.5  105.247
 25.8976  11189  105.636
 26.0956  11158.6  105.509
 26.2936  11074.7  104.773
 26.4916  11257  105.489
 26.6896  10855.8  103.895
 26.8876  10892.6  103.927
 27.0856  10738.7  103.209
 27.2836  10494.7  102.122
 27.4816  10451.1  101.673
 27.6796  10465.6  102.125
 27.8776  10591.1  102.585
 28.0756  10233.9  101.139
 28.2736  10327.2  101.174
 28.4716  10113.6  100.174
 28.6696  10044.4  99.6739
 28.8676  9986.52  99.7409
 29.0656  9906.12  99.3105
 29.2636  9917.75  99.0807
 29.4616  9531.13  97.4011
 29.6596  9578.23  97.2083
 29.8576  9384.87  96.9026
 30.0556  9487.69  97.3048
 30.2536  9628.64  97.8185
 30.4516  9663.21  97.6328
 30.6496  9671.58  97.4052
 30.8476  9533.83  97.1511
 31.0456  9681.2  97.862
 31.2436  9583.74  96.6218
 31.4416  9444.23  96.1067
 31.6396  9465.73  96.2565
 31.8376  9540.96  96.1504
 32.0356  9256.34  95.2703
 32.2336  9414.56  95.4869
 32.4316  9060.85  94.0883
 32.6296  9137.21  94.2457
 32.8276  9090.47  93.8607
 33.0256  9098.08  93.9647
 33.2236  9111.84  94.1834
 33.4216  9037.68  93.4933
 33.6196  8934.39  93.2402
 33.8176  9017.83  93.8522
 34.0156  8870.82  92.7017
 34.2136  9015.3  93.474
 34.4116  8678.69  91.8849
 34.6096  8720.36  91.9822
 34.8076  8702.89  92.3096
 35.0056  8606.34  91.4697
 35.2036  8909.28  93.29
 35.4016  8543.92  91.2675
 35.5996  8482.67  90.9789
 35.7976  8519.84  91.4479
 35.9956  8698.85  92.0432
 36.1936  8534.78  91.0235
 36.3916  8401.41  90.5147
 36.5896  8430.58  92.1324
 36.7876  8287.09  90.2687
 36.9856  8071.71  89.1117
 37.1836  8164.95  88.7346
 37.3816  8148.13  89.0102
 37.5796  8200.48  91.0162
 37.7776  8334.88  90.1128
 37.9756  8201.27  89.2647
 38.1736  8271.69  89.8428
 38.3716  8187.39  89.6594
 38.5696  8074.24  89.4204
 38.7676  8086.92  88.9961
 38.9656  8090.54  88.6363
 39.1636  8062.08  88.7249
 39.3616  8118.31  89.005
 39.5596  7885  88.549
 39.7576  7899.49  88.0204
 39.9556  7944.98  87.9108
 40.1536  8075.82  88.826
 40.3516  8058.11  88.8225
 40.5496  8182.36  89.4746
 40.7476  8083  89.1347
 40.9456  8093.94  88.9595
 41.1436  8097.27  88.6913
 41.3416  7989.8  88.4414
 41.5396  7950.14  88.0302
 41.7376  7981.56  88.4595
 41.9356  8036.92  88.6239
 42.1336  8147.87  89.3789
 42.3316  7891.1  88.1655
 42.5296  7936.09  87.9234
 42.7276  8030.5  88.6968
 42.9256  7982.6  88.304
 43.1236  7892.32  87.9097
 43.3216  7913.39  87.8683
 43.5196  7863.51  87.5573
 43.7176  7950  88.4417
 43.9156  7656.99  86.7144
 44.1136  7664.23  86.3069
 44.3116  7634.07  86.1463
 44.5096  7641.89  86.5054
 44.7076  7569.45  86.019
 44.9056  7739.73  86.8461
 45.1036  7734.07  86.4354
 45.3016  7721.87  86.8657
 45.4996  7709.21  86.7354
 45.6976  7590.87  86.2501
 45.8956  7648.32  86.3925
 46.0936  7679.99  86.5683
 46.2916  7691.86  86.6078
 46.4896  7701.88  86.6886
 46.6876  7461.96  86.0662
 46.8856  7487.17  85.5794
 47.0836  7568.85  86.1775
 47.2816  7449.2  85.3785
 47.4796  7446.1  85.4606
 47.6776  7445.8  86.4174
 47.8756  7479.71  85.7812
 48.0736  7487.97  86.264
 48.2716  7357.01  85.3471
 48.4696  7527.09  85.9031
 48.6676  7564.27  86.7317
 48.8656  7504.78  86.1057
 49.0636  7564.78  86.3934
 49.2616  7340.7  85.1469
 49.4596  7450.04  85.3274
 49.6576  7345.39  84.9584
 49.8556  7397.56  85.278
 50.0536  7365.27  85.5559
 50.2516  7329.64  85.4507
 50.4496  7338.52  85.1784
 50.6476  7344.55  84.8842
 50.8456  7409.26  85.3314
 51.0436  7229.19  84.7653
 51.2416  7150.99  83.9705
 51.4396  6991.05  83.4348
 51.6376  7130.46  84.0793
 51.8356  7216.07  84.1905
 52.0336  7014.85  83.5194
 52.2316  7128.34  84.5642
 52.4296  6959.72  83.2578
 52.6276  6910.2  83.0695
 52.8256  7084.11  83.652
 53.0236  7160.16  84.7656
 53.2216  7115.39  84.5321
 53.4196  6997.86  83.7541
 53.6176  7004.58  84.2958
 53.8156  6940.3  83.5688
 54.0136  6644.11  81.9387
 54.2116  6851.42  82.8389
 54.4096  6693.02  81.9452
 54.6076  6764.1  82.7292
 54.8056  6631.13  81.6829
 55.0036  6592.17  81.8438
 55.2016  6756.04  82.3761
 55.3996  6517.75  80.9103
 55.5976  6531.22  81.1687
 55.7956  6536.09  81.0191
 55.9936  6624.11  81.679
 56.1916  6590.11  81.5198
 56.3896  6396.1  80.2778
 56.5876  6325.12  80.3984
 56.7856  6415.92  80.4651
 56.9836  6489.65  80.6974
 57.1816  6548.66  81.4137
 57.3796  6264.22  79.4324
 57.5776  6333.74  79.8042
 57.7756  6334.01  80.468
 57.9736  6272.85  79.742
 58.1716  6189.37  79.4761
 58.3696  6058.55  78.3897
 58.5676  6123.2  78.2735
 58.7656  6058.8  78.538
 58.9636  6033.24  78.4032
 59.1616  6003.87  78.3438
 59.3596  6055.89  77.9414
 59.5576  5927.75  77.1685
 59.7556  5910.88  77.4724
 59.9536  6118.71  78.7208
 60.1516  5931.99  78.3516
 60.1996  0.0000000E+00  0.0000000E+00

File: 17_Db_f00130.xye
# /beamlines/bl04/projects/cycle2025-II/20250340211-lsimonelli/DATA/IS17_D/17_Db_f00130.xye : mythproc.py merge -s 0.006 -l 0.5 -f /beamlines/bl04/inhouse/ff/FlatField/ff_20Nov2024rod8mm60s_17keV.raw -b True -c true -o xye /beamlines/bl04/projects/cycle2025-II/20250340211-lsimonelli/DATA/IS17_D/17_Db_00130.dat
# IsMon = [6737979, 6738277, 6740647]  IsPos = [-1.4999, -2.4884, -3.4988]
# Wave = 0.4962  CalPath /beamlines/bl04/projects/cycle2025-II/20250340211-lsimonelli/DATA/Align/Si_Pos1_25keV_f00001.cal
# Date = 2025-09-25_05:56:15 Dt = 4.8000  Bin = 0.0060  <imon> = 6738968 +/- 1194 (Min/Max) 6737979 / 6740647
# icurr 248.7972  mocoIn 1.6984E-05  mocoOut 0.7969  i15 7.0614e+06  imon 6.73897e+06  i7 5.6667  iEMpd_timer 4.8000  iEMpd_1 3.5666E-08  iEMpd_2 7.9299E-08  iEMpd_3 1.8872E-08  iEMpd_4 4.9376E-08  iEMhp_timer 4.8000  iEMhp_1 4.8608E-06  iEMhp_2 -2.6044E-08  iEMhp_3 -2.5432E-08  iEMhp_4 -2.2996E-08
#      9776
 1.7416  69718.2  264.137
 1.9396  48209.7  219.934
 2.1376  35553.1  188.863
 2.3356  31319.9  176.89
 2.5336  29676.8  172.794
 2.7316  26914.3  164.67
 2.9296  25452.6  160.291
 3.1276  25287.1  159.308
 3.3256  24523.1  156.544
 3.5236  26027.7  161.083
 3.7216  23955.8  155.777
 3.9196  23440.1  153.301
 4.1176  23453.9  153.132
 4.3156  24420.8  156.418
 4.5136  26605.5  162.251
 4.7116  27712  166.728
 4.9096  27029.7  164.091
 5.1076  26615.5  163.416
 5.3056  26834.5  163.795
 5.5036  26674.6  163.231
 5.7016  27174.1  164.707
 5.8996  27665.5  165.424
 6.0976  28570.2  169.524
 6.2956  28536.4  168.772
 6.4936  29286.2  170.167
 6.6916  29569.5  171.977
 6.8896  30536  174.606
 7.0876  31338.4  177.638
 7.2856  31240.4  176.41
 7.4836  31830.3  177.41
 7.6816  32607.6  180.092
 7.8796  33386.2  182.234
 8.0776  35046.1  187.685
 8.2756  36677  190.615
 8.4736  37347.6  192.164
 8.6716  36380  190.284
 8.8696  37513.2  193.725
 9.0676  36699.6  190.931
 9.2656  35657  188.9
 9.4636  34711.8  184.833
 9.6616  34072.8  183.86
 9.8596  33400.1  181.492
 10.0576  31273.9  176.302
 10.2556  30573.4  174.763
 10.4536  30017.3  172.762
 10.6516  29598.3  171.759
 10.8496  27652.3  165.422
 11.0476  27145  163.909
 11.2456  26755.7  163.276
 11.4436  27310.2  164.11
 11.6416  25948.8  160.321
 11.8396  24963.3  157.436
 12.0376  24265.5  154.865
 12.2356  24159.8  154.951
 12.4336  24145.2  154.447
 12.6316  23901.3  153.925
 12.8296  24078  154.11
 13.0276  24352.5  155.193
 13.2256  24292  155.367
 13.4236  24228.7  154.934
 13.6216  24721.1  156.501
 13.8196  26826.8  162.513
 14.0176  23733.6  153.413
 14.2156  23535.8  151.805
 14.4136  22239.1  148.94
 14.6116  21902.1  147.002
 14.8096  21103.5  144.28
 15.0076  20231  145.159
 15.2056  19118.6  136.953
 15.4036  18230.3  134.547
 15.6016  18086.4  133.112
 15.7996  17497.1  131.181
 15.9976  17277  133.257
 16.1956  16969.3  129.95
 16.3936  16652.6  127.916
 16.5916  16415  127.644
 16.7896  16524.9  128.123
 16.9876  16348.8  128.909
 17.1856  15794.5  125.102
 17.3836  15563.7  124.095
 17.5816  15425.3  124.026
 17.7796  15078.2  122.55
 17.9776  14860.7  122.433
 18.1756  15101.9  122.158
 18.3736  14759.6  121.252
 18.5716  14531.6  120.063
 18.7696  14482.2  119.422
 18.9676  14399.7  118.882
 19.1656  13997.3  117.791
 19.3636  14032.6  118.139
 19.5616  13906.2  117.769
 19.7596  14320.4  118.904
 19.9576  14804.6  120.942
 20.1556  13825.2  117.392
 20.3536  13598.5  115.816
 20.5516  13436.2  115.573
 20.7496  12990.3  113.571
 20.9476  13250.6  114.466
 21.1456  13018.8  113.78
 21.3436  12940.8  113.387
 21.5416  12700.9  112.347
 21.7396  12617.6  111.817
 21.9376  12586.5  111.453
 22.1356  12763.1  112.359
 22.3336  12420.7  111.125
 22.5316  12443  111.313
 22.7296  12423.6  110.597
 22.9276  12277.4  110.606
 23.1256  12477.7  110.983
 23.3236  12605.9  112.124
 23.5216  12468.7  111.152
 23.7196  12357.8  110.608
 23.9176  12430.1  110.678
 24.1156  12233.7  110.265
 24.3136  11759.8  108.901
 24.5116  12198.4  110.437
 24.7096  11628.7  107.639
 24.9076  11471.7  106.943
 25.1056  11179.8  106.037
 25.3036  11017  104.769
 25.5016  11072.8  105.072
 25.6996  11009.6  104.362
 25.8976  11034  104.91
 26.0956  10913.7  104.342
 26.2936  10884.2  103.869
 26.4916  11054.5  104.533
 26.6896  10697.7  103.135
 26.8876  10717.1  103.086
 27.0856  10466.6  101.934
 27.2836  10287.1  100.945
 27.4816  10254.1  100.721
 27.6796  10259.1  101.111
 27.8776  10445.4  101.878
 28.0756  10074.5  100.346
 28.2736  10004.6  99.5794
 28.4716  9901.38  99.1203
 28.6696  9906.2  98.9874
 28.8676  9761.99  98.613
 29.0656  9649.45  98.0176
 29.2636  9770.27  98.4267
 29.4616  9385.57  96.6427
 29.6596  9385.89  96.2214
 29.8576  9280  96.3535
 30.0556  9429.91  96.9946
 30.2536  9265.21  95.9474
 30.4516  9507.53  96.8272
 30.6496  9545.98  96.7679
 30.8476  9407.98  96.5065
 31.0456  9381.88  96.339
 31.2436  9514.56  96.2794
 31.4416  9308.25  95.4153
 31.6396  9391.33  95.8805
 31.8376  9442.26  95.6555
 32.0356  9383.03  95.948
 32.2336  9278.42  94.8022
 32.4316  9014.54  93.8502
 32.6296  8959.62  93.3992
 32.8276  8961.39  93.1964
 33.0256  8902.34  92.9487
 33.2236  8982.16  93.5103
 33.4216  8883.06  92.6821
 33.6196  8875.04  92.9338
 33.8176  8786.89  92.6251
 34.0156  8710.59  91.8646
 34.2136  8770.35  92.1997
 34.4116  8505.71  90.9659
 34.6096  8575.65  91.2162
 34.8076  8483.32  91.1351
 35.0056  8504.55  90.9086
 35.2036  8735.96  92.3832
 35.4016  8398.46  90.4886
 35.5996  8406.34  90.5652
 35.7976  8299.85  90.2641
 35.9956  8608.52  91.5753
 36.1936  8440.75  90.527
 36.3916  8290.86  89.918
 36.5896  8264.76  90.7576
 36.7876  8062.07  89.03
 36.9856  8063.63  89.0656
 37.1836  8002.01  87.8426
 37.3816  7985.17  88.1091
 37.5796  8042.96  90.1483
 37.7776  8158.54  89.1583
 37.9756  8090.9  88.6675
 38.1736  8410.08  90.5942
 38.3716  7998.21  88.6151
 38.5696  7921.69  88.569
 38.7676  7891.82  87.9209
 38.9656  8032.43  88.3185
 39.1636  7939.09  88.0872
 39.3616  7988.64  88.2931
 39.5596  7740.99  87.7432
 39.7576  7814.64  87.5427
 39.9556  7907.31  87.6998
 40.1536  7994.83  88.3818
 40.3516  7949.71  88.1499
 40.5496  7939.16  88.3402
 40.7476  7967.09  88.4923
 40.9456  8059.09  88.763
 41.1436  8079.26  88.5974
 41.3416  7870.28  87.7703
 41.5396  7830  87.365
 41.7376  7853.52  87.7515
 41.9356  7837.51  87.5132
 42.1336  8044.86  88.8157
 42.3316  7804.5  87.6798
 42.5296  7889.7  87.6726
 42.7276  7756.42  87.1652
 42.9256  7776.58  87.1568
 43.1236  7817.36  87.4822
 43.3216  7853.02  87.4363
 43.5196  7709.58  86.6992
 43.7176  7665.27  86.8383
 43.9156  7561.56  86.1651
 44.1136  7489.19  85.3103
 44.3116  7649.89  86.2314
 44.5096  7512.17  85.761
 44.7076  7621.78  86.315
 44.9056  7711.57  86.6882
 45.1036  7560.92  85.4612
 45.3016  7595.81  86.1593
 45.4996  7580.26  86.0065
 45.6976  7367.09  84.9691
 45.8956  7567.65  85.9409
 46.0936  7587.4  86.0534
 46.2916  7545.78  85.7881
 46.4896  7561.72  85.9233
 46.6876  7541.53  86.5182
 46.8856  7399.4  84.9398
 47.0836  7371.05  85.0459
 47.2816  7336.82  84.7325
 47.4796  7459.77  85.539
 47.6776  7253.75  85.3099
 47.8756  7433.48  85.5132
 48.0736  7377.26  85.6487
 48.2716  7346.53  85.2882
 48.4696  7357.41  84.9371
 48.6676  7430.16  85.9537
 48.8656  7408.49  85.5419
 49.0636  7415.4  85.5433
 49.2616  7246.97  84.6006
 49.4596  7367.9  84.8566
 49.6576  7395.16  85.2355
 49.8556  7235.85  84.3415
 50.0536  7311.05  85.2288
 50.2516  7329.07  85.4672
 50.4496  7341.81  85.197
 50.6476  7226.64  84.1987
 50.8456  7350.37  85.0068
 51.0436  7086.18  83.9163
 51.2416  7085.06  83.5766
 51.4396  6960.98  83.2495
 51.6376  6992.9  83.2618
 51.8356  7013.39  82.9852
 52.0336  6958.95  83.1917
 52.2316  6908.68  83.241
 52.4296  6969.46  83.3136
 52.6276  6863.45  82.7841
 52.8256  7022  83.2891
 53.0236  7032.54  84.0081
 53.2216  6976.34  83.7111
 53.4196  6949.51  83.4609
 53.6176  6875.43  83.5103
 53.8156  6912.98  83.41
 54.0136  6603.28  81.6823
 54.2116  6738.98  82.1431
 54.4096  6563.8  81.1504
 54.6076  6603.81  81.7246
 54.8056  6518.72  80.9938
 55.0036  6547.93  81.5901
 55.2016  6633.23  81.6108
 55.3996  6363.67  79.9396
 55.5976  6381.24  80.2368
 55.7956  6434.54  80.3851
 55.9936  6552.36  81.2406
 56.1916  6301.14  79.7166
 56.3896  6247.44  79.3463
 56.5876  6298.09  80.2248
 56.7856  6281.52  79.6097
 56.9836  6377.17  79.9869
 57.1816  6400.01  80.5091
 57.3796  6212.18  79.1265
 57.5776  6206.52  78.9657
 57.7756  6223.48  79.7598
 57.9736  6210.79  79.3488
 58.1716  6105.55  78.9364
 58.3696  5973.13  77.8339
 58.5676  5992.54  77.4338
 58.7656  5838.07  77.092
 58.9636  5838.27  77.1188
 59.1616  6007.31  78.3602
 59.3596  5921.4  77.0618
 59.5576  5867.57  76.7663
 59.7556  5841.49  77.0068
 59.9536  5983.94  77.8394
 60.1516  5961.44  78.5361
 60.1996  0.0000000E+00  0.0000000E+00