Folder: echemistpy/docs/examples/opeando_xrd/IS17_D/Data/IS17_D (part 49)

File: 17_Da_f00127.xye
# /beamlines/bl04/projects/cycle2025-II/20250340211-lsimonelli/DATA/IS17_D/17_Da_f00127.xye : mythproc.py merge -s 0.006 -l 0.5 -f /beamlines/bl04/inhouse/ff/FlatField/ff_20Nov2024rod8mm60s_17keV.raw -b True -c true -o xye /beamlines/bl04/projects/cycle2025-II/20250340211-lsimonelli/DATA/IS17_D/17_Da_00127.dat
# IsMon = [6786061, 6788296, 6788492]  IsPos = [-1.4999, -2.4884, -3.4988]
# Wave = 0.4962  CalPath /beamlines/bl04/projects/cycle2025-II/20250340211-lsimonelli/DATA/Align/Si_Pos1_25keV_f00001.cal
# Date = 2025-09-25_04:58:21 Dt = 4.8000  Bin = 0.0060  <imon> = 6787616 +/- 1103 (Min/Max) 6786061 / 6788492
# icurr 252.9193  mocoIn 1.7253E-05  mocoOut 0.8093  i15 7.10592e+06  imon 6.78762e+06  i7 4.6667  iEMpd_timer 4.8000  iEMpd_1 3.5013E-08  iEMpd_2 7.7535E-08  iEMpd_3 1.6446E-08  iEMpd_4 4.8375E-08  iEMhp_timer 4.8000  iEMhp_1 4.9405E-06  iEMhp_2 -2.4904E-08  iEMhp_3 -2.3950E-08  iEMhp_4 -2.1882E-08
#      9776
 1.7416  71181.5  266.906
 1.9396  46794.9  216.675
 2.1376  32966.5  181.87
 2.3356  29460  171.565
 2.5336  27467.9  166.246
 2.7316  25742.9  161.036
 2.9296  24754.2  158.082
 3.1276  23882.9  154.832
 3.3256  23815.1  154.27
 3.5236  25635.3  159.859
 3.7216  23638  154.751
 3.9196  23311.7  152.906
 4.1176  22949.3  151.485
 4.3156  24445.7  156.502
 4.5136  26771.4  162.755
 4.7116  27714.9  166.739
 4.9096  27030.8  164.105
 5.1076  26781.4  163.931
 5.3056  27098.2  164.623
 5.5036  27104.7  164.532
 5.7016  27482.6  165.648
 5.8996  28138.8  166.82
 6.0976  28738  170.044
 6.2956  29403.9  171.321
 6.4936  29943.4  172.073
 6.6916  30272.2  174.024
 6.8896  31128.3  176.324
 7.0876  32146  179.917
 7.2856  31988  178.523
 7.4836  32441.8  179.116
 7.6816  33313.7  182.046
 7.8796  34712.9  185.811
 8.0776  36448.8  191.396
 8.2756  38473.8  195.217
 8.4736  39115.2  196.655
 8.6716  38262.8  195.139
 8.8696  38331  195.791
 9.0676  37681.8  193.499
 9.2656  36574.9  191.332
 9.4636  36158.4  188.623
 9.6616  35568.1  187.866
 9.8596  34114.3  183.442
 10.0576  32596.2  179.98
 10.2556  31255.6  176.699
 10.4536  30164.4  173.183
 10.6516  29550  171.606
 10.8496  28635.8  168.328
 11.0476  27956.5  166.352
 11.2456  27398.8  165.223
 11.4436  27877.3  165.807
 11.6416  26929.7  163.331
 11.8396  25474.6  159.064
 12.0376  25292.8  158.126
 12.2356  24824.1  157.058
 12.4336  24760.8  156.405
 12.6316  24453.4  155.697
 12.8296  24822.7  156.504
 13.0276  25380  158.431
 13.2256  25215.2  158.292
 13.4236  25133.7  157.793
 13.6216  24865.1  156.974
 13.8196  25150.9  157.634
 14.0176  24631.7  156.286
 14.2156  24055.4  153.479
 14.4136  22860.1  151.005
 14.6116  22634.9  149.459
 14.8096  22076.6  147.589
 15.0076  20772.4  147.004
 15.2056  20380.8  141.397
 15.4036  19363.5  138.664
 15.6016  19198  137.139
 15.7996  18748.1  135.807
 15.9976  17849.7  135.495
 16.1956  17376.5  131.534
 16.3936  17075.4  129.555
 16.5916  16788.9  129.101
 16.7896  16947.4  129.772
 16.9876  16865.2  130.945
 17.1856  16285.9  127.031
 17.3836  15943.8  125.589
 17.5816  15549.7  124.52
 17.7796  15452.5  124.062
 17.9776  15232.9  123.977
 18.1756  15410.8  123.381
 18.3736  15169.7  122.932
 18.5716  14850.6  121.381
 18.7696  15070.4  121.832
 18.9676  14614.6  119.784
 19.1656  14537.9  120.031
 19.3636  14433.4  119.806
 19.5616  14362  119.684
 19.7596  14526.2  119.763
 19.9576  15079.4  122.076
 20.1556  14467.8  120.1
 20.3536  14074.7  117.835
 20.5516  13803.3  117.135
 20.7496  13593.2  116.185
 20.9476  13380.7  115.027
 21.1456  13576.9  116.194
 21.3436  13325.1  115.065
 21.5416  13140.6  114.266
 21.7396  13082.6  113.852
 21.9376  13160.5  113.956
 22.1356  13147.9  114.031
 22.3336  12972.2  113.559
 22.5316  12990.5  113.728
 22.7296  12979  113.026
 22.9276  12981.7  113.731
 23.1256  13274.6  114.465
 23.3236  12860.8  113.242
 23.5216  12910.9  113.113
 23.7196  12623.8  111.79
 23.9176  12721.4  111.977
 24.1156  12500.3  111.477
 24.3136  12116.9  110.55
 24.5116  12172.3  110.327
 24.7096  11878.8  108.804
 24.9076  11589.9  107.5
 25.1056  11455.4  107.341
 25.3036  11509.7  107.094
 25.5016  11353.2  106.391
 25.6996  11328.7  105.859
 25.8976  11346.2  106.377
 26.0956  11233.6  105.872
 26.2936  11343.4  106.029
 26.4916  11267.3  105.553
 26.6896  10761.1  103.452
 26.8876  10945.2  104.187
 27.0856  10978.7  104.395
 27.2836  10628.8  102.612
 27.4816  10570.5  102.266
 27.6796  10437.5  101.997
 27.8776  10431.6  101.826
 28.0756  10509.1  102.487
 28.2736  10335.7  101.221
 28.4716  10114.8  100.182
 28.6696  10285  100.864
 28.8676  10009.2  99.8573
 29.0656  9947.81  99.5272
 29.2636  10012.9  99.6421
 29.4616  9905.3  99.2861
 29.6596  10081.7  99.7229
 29.8576  9839.11  99.2098
 30.0556  9829.16  99.0332
 30.2536  9930.1  99.3336
 30.4516  9686.94  97.7666
 30.6496  9816.38  98.1421
 30.8476  9805.56  98.5379
 31.0456  9630.15  97.6125
 31.2436  9599.97  96.7195
 31.4416  9289  95.3176
 31.6396  9534.86  96.6177
 31.8376  9456.29  95.761
 32.0356  9323.9  95.6537
 32.2336  9349.89  95.1711
 32.4316  9330.4  95.4821
 32.6296  9198.04  94.6371
 32.8276  9238.82  94.6135
 33.0256  9142.3  94.1975
 33.2236  9175.85  94.522
 33.4216  9276.55  94.7187
 33.6196  9133.87  94.2867
 33.8176  9064.19  94.0931
 34.0156  8979.71  93.2661
 34.2136  8894.7  92.8656
 34.4116  8907.44  93.0839
 34.6096  8848.45  92.652
 34.8076  8727.19  92.4238
 35.0056  8938.98  93.2255
 35.2036  8708.56  92.2223
 35.4016  8671.56  91.9519
 35.5996  8663.82  91.9467
 35.7976  8678.49  92.3002
 35.9956  8687.58  91.9919
 36.1936  8515.83  90.9438
 36.3916  8499.02  91.0355
 36.5896  8512.51  92.0883
 36.7876  8392.03  90.8366
 36.9856  8258.43  90.1388
 37.1836  8351.53  89.7385
 37.3816  8510.44  90.96
 37.5796  8367.96  91.9425
 37.7776  8252.68  89.6711
 37.9756  8237.37  89.4728
 38.1736  8331.98  90.1761
 38.3716  8312.35  90.3544
 38.5696  8223.46  90.2506
 38.7676  8119.48  89.1794
 38.9656  8094.92  88.6762
 39.1636  8047.87  88.6876
 39.3616  8138.13  89.107
 39.5596  8019.47  89.3071
 39.7576  8059.77  88.9041
 39.9556  8066.25  88.5763
 40.1536  8186.58  89.4398
 40.3516  8228.69  89.6772
 40.5496  8175.43  89.6481
 40.7476  8285.86  90.2639
 40.9456  8205.68  89.5612
 41.1436  8192.97  89.2212
 41.3416  8128.06  89.1981
 41.5396  8036.33  88.5087
 41.7376  8107.56  89.1629
 41.9356  8008.87  88.4774
 42.1336  8075.65  88.9924
 42.3316  8039.91  88.996
 42.5296  7961.35  88.0747
 42.7276  8009.64  88.5841
 42.9256  8020.95  88.5121
 43.1236  7910.06  88.0089
 43.3216  7943.88  87.9477
 43.5196  7912.13  87.8335
 43.7176  7873.56  88.0202
 43.9156  7729.79  87.1171
 44.1136  7719.13  86.606
 44.3116  7785.17  86.9871
 44.5096  7636.42  86.4654
 44.7076  7578.96  86.0705
 44.9056  7653.32  86.3637
 45.1036  7563.59  85.4823
 45.3016  7476.54  85.488
 45.4996  7565.45  85.9336
 45.6976  7394.19  85.1294
 45.8956  7487.28  85.4808
 46.0936  7494.82  85.5298
 46.2916  7581.37  86.0016
 46.4896  7547.95  85.8391
 46.6876  7434.75  85.9155
 46.8856  7391.46  84.9089
 47.0836  7329.25  84.8113
 47.2816  7183.62  83.8408
 47.4796  7361.74  84.978
 47.6776  7145.82  84.6643
 47.8756  7231  84.3442
 48.0736  7220.49  84.7415
 48.2716  7083.34  83.7452
 48.4696  7154.64  83.7579
 48.6676  7201.54  84.6243
 48.8656  7210.21  84.4046
 49.0636  7096.77  83.6828
 49.2616  6984.07  83.0519
 49.4596  7108.2  83.3499
 49.6576  7115.93  83.6158
 49.8556  6965.04  82.7476
 50.0536  7043.64  83.6646
 50.2516  6931.66  83.124
 50.4496  6913.81  82.6743
 50.6476  7029.76  83.0462
 50.8456  6848.07  82.0487
 51.0436  6751.91  81.911
 51.2416  6838.02  82.106
 51.4396  6703.26  81.6882
 51.6376  6754.72  81.8252
 51.8356  6800.69  81.7355
 52.0336  6656.05  81.3732
 52.2316  6582.05  81.2691
 52.4296  6626.43  81.2137
 52.6276  6611.53  81.2503
 52.8256  6674.13  81.1872
 53.0236  6497.62  80.7563
 53.2216  6457.09  80.5357
 53.4196  6386.76  80.0231
 53.6176  6397.28  80.5521
 53.8156  6486.19  80.7836
 54.0136  6527.79  81.2285
 54.2116  6441.85  80.3514
 54.4096  6499.73  80.7595
 54.6076  6366.78  80.2763
 54.8056  6356.83  80.0037
 55.0036  6305.57  80.0745
 55.2016  6433.8  80.4264
 55.3996  6368.99  79.9898
 55.5976  6273.32  79.5762
 55.7956  6359.89  79.9345
 55.9936  6283.34  79.5871
 56.1916  6297.23  79.6917
 56.3896  6350.77  80.0218
 56.5876  6221.29  79.7565
 56.7856  6271.26  79.5507
 56.9836  6261.33  79.2771
 57.1816  6305.38  79.9319
 57.3796  6243.91  79.3392
 57.5776  6249.96  79.3079
 57.7756  6342.53  80.539
 57.9736  6150.89  78.988
 58.1716  6242.76  79.8156
 58.3696  6195.49  79.2596
 58.5676  6256.06  79.1099
 58.7656  6202.57  79.4578
 58.9636  6299.51  80.1119
 59.1616  6203.26  79.6176
 59.3596  6353.18  79.8267
 59.5576  6199.71  78.9138
 59.7556  6239.02  79.5887
 59.9536  6301.57  79.8834
 60.1516  6253.93  80.4446
 60.1996  0.0000000E+00  0.0000000E+00

File: 17_Da_f00128.xye
# /beamlines/bl04/projects/cycle2025-II/20250340211-lsimonelli/DATA/IS17_D/17_Da_f00128.xye : mythproc.py merge -s 0.006 -l 0.5 -f /beamlines/bl04/inhouse/ff/FlatField/ff_20Nov2024rod8mm60s_17keV.raw -b True -c true -o xye /beamlines/bl04/projects/cycle2025-II/20250340211-lsimonelli/DATA/IS17_D/17_Da_00128.dat
# IsMon = [6747858, 6749250, 6745927]  IsPos = [-1.4999, -2.4883, -3.4988]
# Wave = 0.4962  CalPath /beamlines/bl04/projects/cycle2025-II/20250340211-lsimonelli/DATA/Align/Si_Pos1_25keV_f00001.cal
# Date = 2025-09-25_05:14:56 Dt = 4.8000  Bin = 0.0060  <imon> = 6747678 +/- 1363 (Min/Max) 6745927 / 6749250
# icurr 249.0378  mocoIn 1.7001E-05  mocoOut 0.7970  i15 7.06535e+06  imon 6.74768e+06  i7 5.3333  iEMpd_timer 4.8000  iEMpd_1 3.4576E-08  iEMpd_2 7.8187E-08  iEMpd_3 1.7048E-08  iEMpd_4 4.7058E-08  iEMhp_timer 4.8000  iEMhp_1 4.8672E-06  iEMhp_2 -2.5943E-08  iEMhp_3 -2.4550E-08  iEMhp_4 -2.0723E-08
#      9776
 1.7416  69466.3  263.637
 1.9396  46056.9  214.945
 2.1376  32138.4  179.549
 2.3356  28883.9  169.857
 2.5336  26871.4  164.41
 2.7316  25341.1  159.762
 2.9296  24403.7  156.944
 3.1276  23857.7  154.727
 3.3256  23746.1  154.053
 3.5236  25328.6  158.888
 3.7216  23448  154.129
 3.9196  22779.2  151.148
 4.1176  22643.6  150.465
 4.3156  24052.3  155.246
 4.5136  26348.9  161.462
 4.7116  27301.3  165.495
 4.9096  26560  162.669
 5.1076  26324.4  162.522
 5.3056  26682.5  163.364
 5.5036  26710.8  163.331
 5.7016  27084  164.442
 5.8996  27869.5  166.014
 6.0976  28349.6  168.883
 6.2956  28926.3  169.924
 6.4936  29550.9  170.941
 6.6916  29894  172.931
 6.8896  30574.1  174.745
 7.0876  31912.3  179.263
 7.2856  31692.8  177.7
 7.4836  32051.5  178.118
 7.6816  33056.6  181.342
 7.8796  34703.8  185.803
 8.0776  36040.2  190.335
 8.2756  37922.2  193.836
 8.4736  38510.8  195.139
 8.6716  37867  194.13
 8.8696  37485.1  193.64
 9.0676  37033.9  191.834
 9.2656  36248.8  190.481
 9.4636  35573.5  187.098
 9.6616  35064.1  186.539
 9.8596  33564.6  181.943
 10.0576  31784.3  177.713
 10.2556  30542.9  174.649
 10.4536  29684.2  171.782
 10.6516  29340.1  170.971
 10.8496  28413.3  167.682
 11.0476  27634.6  165.386
 11.2456  26939.8  163.825
 11.4436  27600.4  164.984
 11.6416  26428.7  161.808
 11.8396  25322.1  158.583
 12.0376  25009.1  157.246
 12.2356  24541.8  156.164
 12.4336  24434.7  155.372
 12.6316  24058.6  154.435
 12.8296  24440.6  155.295
 13.0276  25032.1  157.344
 13.2256  24682.8  156.606
 13.4236  24878.8  156.998
 13.6216  24857.7  156.943
 13.8196  24639.4  156.023
 14.0176  24481.6  155.811
 14.2156  23782  152.608
 14.4136  22629.9  150.244
 14.6116  22192  147.99
 14.8096  21957.7  147.193
 15.0076  20486  145.974
 15.2056  20270.4  141.025
 15.4036  19033.4  137.478
 15.6016  18889.5  136.038
 15.7996  18341.5  134.333
 15.9976  17557.3  134.367
 16.1956  17137.2  130.629
 16.3936  16943.6  129.059
 16.5916  16530.2  128.108
 16.7896  16484.9  127.991
 16.9876  16470.2  129.399
 17.1856  16210  126.718
 17.3836  15660.5  124.461
 17.5816  15347.3  123.697
 17.7796  15273.9  123.331
 17.9776  15047.5  123.219
 18.1756  15202  122.549
 18.3736  15086.7  122.592
 18.5716  14855.3  121.398
 18.7696  14707.8  120.363
 18.9676  14399.7  118.898
 19.1656  14412.8  119.512
 19.3636  14334.5  119.393
 19.5616  14224.3  119.11
 19.7596  14450.6  119.448
 19.9576  14970.1  121.629
 20.1556  14111.3  118.616
 20.3536  13723.5  116.345
 20.5516  13538.8  116.014
 20.7496  13388.7  115.305
 20.9476  13262.7  114.512
 21.1456  13430.2  115.572
 21.3436  13037.6  113.816
 21.5416  13059.2  113.913
 21.7396  12895.9  113.045
 21.9376  12957.9  113.074
 22.1356  12852.6  112.741
 22.3336  12969.2  113.544
 22.5316  12780.4  112.812
 22.7296  12889.9  112.65
 22.9276  12756.6  112.746
 23.1256  13042.2  113.474
 23.3236  12827.8  113.091
 23.5216  12719  112.272
 23.7196  12419.2  110.883
 23.9176  12538.8  111.175
 24.1156  12209.3  110.176
 24.3136  12013.4  110.069
 24.5116  12011  109.583
 24.7096  11674.9  107.851
 24.9076  11437.8  106.782
 25.1056  11271.7  106.468
 25.3036  11212.9  105.701
 25.5016  11174.7  105.553
 25.6996  11135.1  104.953
 25.8976  11043.3  104.958
 26.0956  11132.4  105.398
 26.2936  11080.5  104.792
 26.4916  11186.4  105.174
 26.6896  10797.7  103.63
 26.8876  10791.6  103.447
 27.0856  10742.3  103.266
 27.2836  10502.1  102.055
 27.4816  10488.2  101.867
 27.6796  10450.2  102.059
 27.8776  10324.4  101.298
 28.0756  10301.4  101.475
 28.2736  10214.9  100.626
 28.4716  10040.3  99.8118
 28.6696  10128.9  100.093
 28.8676  9953  99.5751
 29.0656  9887.02  99.2304
 29.2636  9918.62  99.1689
 29.4616  9804.02  98.7837
 29.6596  9792.62  98.2891
 29.8576  9697.36  98.4999
 30.0556  9632.42  98.0501
 30.2536  9785.17  98.6117
 30.4516  9532.57  96.9896
 30.6496  9564.57  96.8773
 30.8476  9364.66  96.3008
 31.0456  9481  96.8519
 31.2436  9337.04  95.3855
 31.4416  9381.65  95.7792
 31.6396  9333.35  95.5826
 31.8376  9234.35  94.6177
 32.0356  9160.04  94.8024
 32.2336  9063.1  93.6906
 32.4316  9099.36  94.2509
 32.6296  9021.94  93.7246
 32.8276  9070.23  93.75
 33.0256  9017.33  93.5589
 33.2236  8982.4  93.52
 33.4216  9042.95  93.5244
 33.6196  8959.15  93.3815
 33.8176  8918.96  93.3289
 34.0156  8809.68  92.3794
 34.2136  8890.05  92.8391
 34.4116  8829.62  92.793
 34.6096  8696.94  91.8584
 34.8076  8625.16  91.8852
 35.0056  8686.71  91.894
 35.2036  8554.94  91.4069
 35.4016  8564.29  91.3806
 35.5996  8513.02  91.145
 35.7976  8462.36  91.1517
 35.9956  8618.33  91.6235
 36.1936  8502.49  90.8779
 36.3916  8237.44  89.5818
 36.5896  8310.54  90.9879
 36.7876  8422.52  91.0075
 36.9856  8199.66  89.8203
 37.1836  8267.4  89.29
 37.3816  8318.45  89.9393
 37.5796  8140.28  90.6887
 37.7776  8066.76  88.6543
 37.9756  8118.02  88.8178
 38.1736  8173.83  89.3213
 38.3716  8157.81  89.5145
 38.5696  8091.64  89.5224
 38.7676  7835.74  87.595
 38.9656  7956.69  87.9051
 39.1636  7929.11  88.017
 39.3616  7989.31  88.2848
 39.5596  7836.03  88.2792
 39.7576  7855.09  87.7597
 39.9556  8053.8  88.5107
 40.1536  8027.67  88.5697
 40.3516  8087.11  88.9042
 40.5496  8046.55  88.936
 40.7476  8113.83  89.3072
 40.9456  8058.81  88.7609
 41.1436  7982.91  88.063
 41.3416  7981.87  88.3671
 41.5396  8061.56  88.5725
 41.7376  7991.26  88.5213
 41.9356  7923.97  88.0071
 42.1336  7893.28  87.982
 42.3316  7944.9  88.472
 42.5296  7936.44  87.9368
 42.7276  8002.17  88.5443
 42.9256  7863.92  87.6472
 43.1236  7778.47  87.2762
 43.3216  7893.26  87.6652
 43.5196  7728.76  86.8079
 43.7176  7812.26  87.675
 43.9156  7616.1  86.4813
 44.1136  7636.15  86.1434
 44.3116  7568.23  85.7812
 44.5096  7526.54  85.8459
 44.7076  7521.64  85.7479
 44.9056  7633.17  86.2539
 45.1036  7516.03  85.2151
 45.3016  7419.95  85.1642
 45.4996  7377.47  84.8627
 45.6976  7322.16  84.7195
 45.8956  7405.6  85.0058
 46.0936  7366  84.7249
 46.2916  7343.07  84.6305
 46.4896  7340.11  84.6384
 46.6876  7312.46  85.1959
 46.8856  7233.6  83.9948
 47.0836  7275.52  84.5004
 47.2816  7151.77  83.6521
 47.4796  7179.09  83.9184
 47.6776  7002.43  83.813
 47.8756  7103.82  83.5897
 48.0736  7142.1  84.2821
 48.2716  6996.79  83.2674
 48.4696  7092.96  83.4184
 48.6676  6940.38  83.0788
 48.8656  7139.14  83.9814
 49.0636  7034.73  83.3156
 49.2616  6835.82  82.0589
 49.4596  6876.44  82.12
 49.6576  6950.37  82.6341
 49.8556  6910.14  82.4182
 50.0536  6815.94  82.2991
 50.2516  6832.48  82.5302
 50.4496  6788.96  81.9245
 50.6476  6820.72  81.803
 50.8456  6832.06  81.9491
 51.0436  6658.83  81.3507
 51.2416  6716.7  81.3833
 51.4396  6596.37  81.0429
 51.6376  6577.75  80.7442
 51.8356  6629.91  80.6977
 52.0336  6518.63  80.5293
 52.2316  6551.26  81.0827
 52.4296  6655.15  81.4055
 52.6276  6523.19  80.7096
 52.8256  6526.83  80.2959
 53.0236  6409.95  80.2022
 53.2216  6327.19  79.7164
 53.4196  6352.55  79.7946
 53.6176  6467.73  80.9997
 53.8156  6412.7  80.3231
 54.0136  6406.85  80.4722
 54.2116  6392.35  80.0398
 54.4096  6343.09  79.7813
 54.6076  6287.17  79.779
 54.8056  6188.21  78.9375
 55.0036  6285.69  79.9453
 55.2016  6201.63  78.9551
 55.3996  6239.76  79.1755
 55.5976  6242.4  79.3691
 55.7956  6151.97  78.6093
 55.9936  6206.51  79.0962
 56.1916  6184.39  78.9771
 56.3896  6262.73  79.4671
 56.5876  6182.06  79.504
 56.7856  6236.53  79.3371
 56.9836  6185.59  78.7901
 57.1816  6183.73  79.1601
 57.3796  6236.57  79.295
 57.5776  6268.49  79.4267
 57.7756  6157.42  79.3502
 57.9736  6169.68  79.1095
 58.1716  6199.35  79.5428
 58.3696  6151.1  78.9796
 58.5676  6127.9  78.307
 58.7656  6170.65  79.257
 58.9636  6251.76  79.804
 59.1616  6160.37  79.3499
 59.3596  6403.41  80.1562
 59.5576  6421.17  80.3265
 59.7556  6169.54  79.1597
 59.9536  6168.71  79.0522
 60.1516  6278.59  80.6187
 60.1996  0.0000000E+00  0.0000000E+00