Folder: echemistpy/examples/echem

Note: README.en.md
<h1 align="center">
  <br>
  <img src="docs/static/liuchzzyy.jpg" alt="echemistpy" width="150">
  <br>
  echemistpy
  <br>
</h1>

<p align="center">
<strong>Unified data processing for electrochemistry and materials characterization</strong><br/>
Cross-platform: Windows / macOS / Linux
</p>

<p align="center">
  <a href="https://cecill.info/licences/Licence_CeCILL-B_V1-en.html"><img src="https://img.shields.io/badge/License-CeCILL--B-blue.svg" alt="License: CeCILL-B"></a>
  <a href="https://www.python.org/downloads/"><img src="https://img.shields.io/badge/python-3.10%20|%203.11%20|%203.12-blue" alt="Python Version"></a>
  <a href="https://github.com/liuchzzyy/echemistpy"><img src="https://img.shields.io/badge/GitHub-echemistpy-black?logo=github" alt="GitHub"></a>
  <a href="https://github.com/liuchzzyy/echemistpy/issues"><img src="https://img.shields.io/github/issues/liuchzzyy/echemistpy" alt="Issues"></a>
</p>

---

<p align="center">
  <a href="README.md">中文说明</a> | <a href="README.en.md">README</a>
</p>

---

## What is echemistpy?

**echemistpy** is a unified data processing framework for electrochemical techniques and materials characterization. It uses an extensible Reader + Analyzer pattern with pipeline orchestration, built on xarray, numpy, scipy, and pluggy.

### Key Features

- **Unified Data Model**: Represent experimental data as `xarray.Dataset` (flat) and `xarray.DataTree` (hierarchical)
- **Reader Interfaces**: Extensible loaders and standardization for various instruments/formats
- **Modular Analyzers**: Template-based analyzers, easy to extend for new techniques
- **Pipeline Orchestration**: Batch processing with automatic summary aggregation
- **Type-safe Configuration**: Traitlets-based validation and consistency
- **Plugin Architecture**: Pluggy registry for flexible technique support

> **Note**: echemistpy is under active development. Designs may evolve. Please report issues via the [Issue Tracker](https://github.com/liuchzzyy/echemistpy/issues).

---

## Quick Start

### Install (uv recommended)

This project uses [uv](https://github.com/astral-sh/uv) for dependency management.

```powershell
# 1. Sync dependencies (auto-creates/updates virtualenv)
uv sync

# 2. Install all optional groups (docs, interactive tools, etc.)
uv sync --all-groups

# 3. Activate environment
.venv\Scripts\activate
```

### Development Workflow

Before committing, please run the following quality checks:

```powershell
# Format code
uv run ruff format src/

# Lint code
uv run ruff check src/ --fix

# Type checking
uv run ty check

# Run tests
uv run pytest
```

---

## Usage Examples

### Data Loading & Standardization (I/O)

`echemistpy` provides a unified `load` interface that automatically detects file formats and standardizes them with consistent column names and units.

```python
from echemistpy.io import load

# Load a BioLogic .mpt file
raw_data, raw_info = load("docs/examples/echem/Biologic_GPCL.mpt", sample_name="MySample")

# Explore sta

File: Biologic_EIS.mpt
EC-Lab ASCII FILE
Nb header lines : 71

Potentio Electrochemical Impedance Spectroscopy

Run on channel : 4 (SN 22626)
User :
CE vs. WE compliance from -10 V to 10 V
Electrode connection : standard
Potential control : Ewe
Ewe ctrl range : min = -1.00 V, max = 1.00 V
Safety Limits :
	Do not start on E overload
Acquisition started on : 03/27/2025 11:10:20.281
Loaded Setting File :  NONE
Saved on :
	File : LC-FreshElectrolyte_BulkCell-02C_C00_8_02_PEIS_C04.mpr
	Directory : C:\DATA\ChengLiu\2025\Zn-Mn-Charge\FreshElectrolyte_BulkCell\1-FreshElectrolyte_BulkCell-02C-Zn-1M Na2SO4+02M MnSO4-aMnO2-5.0mg_C00_8\
	Host : 192.109.209.127
Device : VSP (SN 1377)
Address : 192.109.209.128
EC-LAB for windows v11.52 (software)
Internet server v11.52 (firmware)
Command interpretor v11.50 (firmware)
Electrode material : alphaMnO2
Initial state :
Electrolyte : 1M Na2SO4 + 0.2M MnSO4 + Ar
Comments :
Mass of active material : 0.264 mg
 at x = 0.000
Molecular weight of active material (at x = 0) : 0.001 g/mol
Atomic weight of intercalated ion : 0.001 g/mol
Acquisition started at : xo = 0.000
Number of e- transfered per intercalated ion : 1
for DX = 1, DQ = 7075.596 mA.h
Battery capacity : 0.000 A.h
Reference electrode : Ag/AgCl / KCl (sat'd) (0.197 V)
Electrode surface area : 1.000 cm²
Characteristic mass : 0.264 mg
Volume (V) : 0.001 cm³
Record Ece
Cycle Definition : Charge/Discharge alternance
Mode                Single sine
E (V)               0.0000
vs.                 Eoc
tE (h:m:s)          0:00:0.0000
record              0
dI                  0.000
unit dI             mA
dt (s)              0.000
fi                  100.000
unit fi             kHz
ff                  10.000
unit ff             mHz
Nd                  6
Points              per decade
spacing             Logarithmic
Va (mV)             10.0
pw                  0.10
Na                  2
corr                0
E range min (V)     -1.000
E range max (V)     1.000
I Range             Auto
Bandwidth           5
nc cycles           0
goto Ns'            0
nr cycles           0
inc. cycle          0

freq/Hz	Re(Z)/Ohm	-Im(Z)/Ohm	|Z|/Ohm	Phase(Z)/deg	time/s	<Ewe>/V	<I>/mA	Cs/µF	Cp/µF	cycle number	I Range	|Ewe|/V	|I|/A	Ns	(Q-Qo)/mA.h	<Ece>/V	|Ece|/V	Phase(Zce)/deg	|Zce|/Ohm	Re(Zce)/Ohm	-Im(Zce)/Ohm	Phase(Zwe-ce)/deg	|Zwe-ce|/Ohm	Re(Zwe-ce)/Ohm	-Im(Zwe-ce)/Ohm	Re(Y)/Ohm-1	Im(Y)/Ohm-1	|Y|/Ohm-1	Phase(Y)/deg	Re(C)/nF	Im(C)/nF	|C|/nF	Phase(C)/deg	Re(M)	Im(M)	|M|	Phase(M)/deg	Re(Permittivity)	Im(Permittivity)	|Permittivity|	Phase(Permittivity)/deg	Re(Resistivity)/Ohm.cm	Im(Resistivity)/Ohm.cm	|Resistivity|/Ohm.cm	Phase(Resistivity)/deg	Re(Conductivity)/mS/cm	Im(Conductivity)/mS/cm	|Conductivity|/mS/cm	Phase(Conductivity)/deg	Tan(Delta)	Loss Angle(Delta)/deg	dq/mA.h	x	Pwe/W	Pce/W	Pwe-ce/W	<Ewe-Ece>/V	Rwe/Ohm	Rce/Ohm	Rwe-ce/Ohm		Ewe-Ece/V
100004	15.188	5.69092	16.2192	-20.5409	1801.67	0.678535	0.0317725	0.279654	0.0344294	1	10	0.00935656	0.000576883	0	2.04056e-06	-1.00774	0.00217518	-17.6215	3.77057	3.59364	1.14145	-19.9904	19.9858	18.7816	6.83238	0.0577355	0.0216334	0.0616554	20.5409	34.4294	91.8855	98.124	-69.4591	0.0000000E+000	0.0000000E+000	0.0000000E+000	69.4591	0.0000000E+000	0.0000000E+000	0.0000000E+000	-69.4591	0.0000000E+000	0.0000000E+000	0.0000000E+000	-20.5409	0.0000000E+000	0.0000000E+000	0.0000000E+000	20.5409	2.66881	69.4591	2.04056e-06	-2.88394e-10	2.15587e-05	-3.20186e-05	5.35773e-05	1.68628	21356	31717.5	53073.6
31621.1	21.1924	6.9966	22.3175	-18.2704	1802.81	0.67856	0.0337106	0.719376	0.0707029	1	10	0.0101952	0.000456827	0	1.23621e-05	-1.00931	0.0025036	-36.6769	5.48042	4.39538	3.27347	-21.8688	27.5719	25.5878	10.2701	0.042549	0.0140474	0.0448078	18.2704	70.7029	214.157	225.526	-71.7296	0.0000000E+000	0.0000000E+000	0.0000000E+000	71.7296	0.0000000E+000	0.0000000E+000	0.0000000E+000	-71.7296	0.0000000E+000	0.0000000E+000	0.0000000E+000	-18.2704	0.0000000E+000	0.0000000E+000	0.0000000E+000	18.2704	3.02896	71.7296	4.10675e-06	-1.74715e-09	2.28747e-05	-3.40245e-05	5.68991e-05	1.68787	20129	29940.4	50069.4
10002.2	26.6399	4.79636	27.0682	-10.2064	1803.7	0.678509	0.0348586	3.31751	0.104163	1	10	0.0107178	0.000395956	0	2.03145e-05	-1.01059	0.00420711	-47.8864	10.6252	7.12528	7.88194	-20.5804	36.067	33.7652	12.6783	0.0363591	0.00654624	0.0369437	10.2064	104.163	578.544	587.846	-79.7936	0.0000000E+000	0.0000000E+000	0.0000000E+000	79.7936	0.0000000E+000	0.0000000E+000	0.0000000E+000	-79.7936	0.0000000E+000	0.0000000E+000	0.0000000E+000	-10.2064	0.0000000E+000	0.0000000E+000	0.0000000E+000	10.2064	5.55419	79.7936	2.37213e-06	-2.87107e-09	2.36519e-05	-3.52277e-05	5.88796e-05	1.6891	19464.6	28991.1	48455.7
3163.08	28.68	2.63237	28.8005	-5.24416	1804.77	0.678571	0.0343815	19.1145	0.159682	1	10	0.0100113	0.000347608	0	3.07108e-05	-1.00694	0.00704582	-46.8076	20.2694	13.8734	14.7776	-22.2511	45.9772	42.5534	17.41	0.0345762	0.00317356	0.0347216	5.24416	159.682	1739.75	1747.07	-84.7558	0.0000000E+000	0.0000000E+000	0.0000000E+000	84.7558	0.0000000E+000	0.0000000E+000	0.0000000E+000	-84.7558	0.0000000E+000	0.0000000E+000	0.0000000E+000	-5.24416	0.0000000E+000	0.0000000E+000	0.0000000E+000	5.24416	10.8951	84.7558	5.55008e-06	-4.34038e-09	2.33303e-05	-3.46202e-05	5.79505e-05	1.68551	19736.5	29287.4	49023.9
1000.32	29.9002	2.14474	29.977	-4.10279	1806.12	0.678595	0.0346238	74.1835	0.379732	1	10	0.0101938	0.000340052	0	4.42033e-05	-1.01074	0.0124582	-46.0954	36.6361	25.4057	26.3961	-27.2962	62.236	55.3059	28.5409	0.0332734	0.00238669	0.0333589	4.10279	379.732	5293.93	5307.53	-85.8972	0.0000000E+000	0.0000000E+000	0.0000000E+000	85.8972	0.0000000E+000	0.0000000E+000	0.0000000E+000	-85.8972	0.0000000E+000	0.0000000E+000	0.0000000E+000	-4.10279	0.0000000E+000	0.0000000E+000	0.0000000E+000	4.10279	13.9412	85.8972	4.59357e-06	-6.24729e-09	2.34955e-05	-3.49957e-05	5.84912e-05	1.68934	19599.1	29192.1	48791.2
316.316	31.4304	2.31188	31.5153	-4.20686	1807.71	0.678573	0.00254004	217.637	1.17118	1	11	0.010261	0.000325589	0	5.17341e-05	-1.03523	0.0226225	-42.2861	69.4817	51.4022	46.7496	-30.6381	96.2718	82.8326	49.0615	0.0316451	0.00232768	0.0317306	4.20686	1171.18	15922.3	15965.3	-85.7931	0.0000000E+000	0.0000000E+000	0.0000000E+000	85.7931	0.0000000E+000	0.0000000E+000	0.0000000E+000	-85.7931	0.0000000E+000	0.0000000E+000	0.0000000E+000	-4.20686	0.0000000E+000	0.0000000E+000	0.0000000E+000	4.20686	13.5951	85.7931	5.58648e-07	-7.31163e-09	1.7236e-06	-2.62952e-06	4.35312e-06	1.7138	267151	407566	674716
100.032	33.249	2.08774	33.3145	-3.59294	1809.06	0.678576	0.00252176	762.088	2.99289	1	11	0.0103068	0.000309379	0	5.28682e-05	-1.04331	0.0340555	-27.5243	110.077	97.6179	50.8693	-22.0314	141.176	130.867	52.957	0.029958	0.00188109	0.030017	3.59294	2992.89	47664.4	47758.2	-86.4071	0.0000000E+000	0.0000000E+000	0.0000000E+000	86.4071	0.0000000E+000	0.0000000E+000	0.0000000E+000	-86.4071	0.0000000E+000	0.0000000E+000	0.0000000E+000	-3.59294	0.0000000E+000	0.0000000E+000	0.0000000E+000	3.59294	15.9259	86.4071	2.00398e-08	-7.47191e-09	1.71121e-06	-2.63097e-06	4.34217e-06	1.72188	269088	413721	682809
31.6296	34.7729	2.08887	34.8355	-3.43774	1810.38	0.678581	0.00303002	2408.88	8.66152	1	11	0.0103691	0.000297659	0	5.34121e-05	-1.01601	0.0387475	-14.8819	130.174	125.808	33.4322	-12.4732	164.462	160.58	35.5211	0.0286547	0.00172134	0.0287063	3.43774	8661.51	144186	144446	-86.5623	0.0000000E+000	0.0000000E+000	0.0000000E+000	86.5623	0.0000000E+000	0.0000000E+000	0.0000000E+000	-86.5623	0.0000000E+000	0.0000000E+000	0.0000000E+000	-3.43774	0.0000000E+000	0.0000000E+000	0.0000000E+000	3.43774	16.6467	86.5623	-2.30033e-07	-7.54877e-09	2.05611e-06	-3.07853e-06	5.13464e-06	1.69459	223953	335315	559267
10.0032	35.7445	2.46471	35.8294	-3.94451	1811.71	0.678549	0.00179088	6455.28	30.547	1	11	0.0103174	0.00028796	0	5.57146e-05	-1.0363	0.039854	-9.20645	138.401	136.618	22.1431	-8.12508	174.11	172.363	24.6078	0.027844	0.00191994	0.0279101	3.94451	30547	443009	444060	-86.0555	0.0000000E+000	0.0000000E+000	0.0000000E+000	86.0555	0.0000000E+000	0.0000000E+000	0.0000000E+000	-86.0555	0.0000000E+000	0.0000000E+000	0.0000000E+000	-3.94451	0.0000000E+000	0.0000000E+000	0.0000000E+000	3.94451	14.5025	86.0555	2.56342e-06	-7.87419e-09	1.2152e-06	-1.85589e-06	3.07109e-06	1.71485	378891	578654	957545
3.1604	37.2122	4.00644	37.4272	-6.14507	1813.23	0.678561	0.000922404	12569.6	144.033	1	11	0.0103443	0.000276385	0	5.66874e-05	-1.06617	0.0399124	-7.61354	144.409	143.136	19.1328	-7.3113	181.826	180.348	23.1393	0.026565	0.00286011	0.0267185	6.14507	144033	1.33779e+06	1.34552e+06	-83.8549	0.0000000E+000	0.0000000E+000	0.0000000E+000	83.8549	0.0000000E+000	0.0000000E+000	0.0000000E+000	-83.8549	0.0000000E+000	0.0000000E+000	0.0000000E+000	-6.14507	0.0000000E+000	0.0000000E+000	0.0000000E+000	6.14507	9.28809	83.8549	3.53482e-06	-8.01167e-09	6.25907e-07	-9.83442e-07	1.60935e-06	1.74473	735644	1.15586e+06	1.89151e+06
1.00006	38.9191	8.4955	39.8355	-12.3137	1818.55	0.678595	0.000864476	18732.8	852.002	1	12	0.0103276	0.000259255	0	5.37083e-05	-0.99278	0.0399094	-8.47488	153.939	152.258	22.6868	-9.26378	193.703	191.177	31.1823	0.0245257	0.00535363	0.0251032	12.3137	852002	3.90314e+06	3.99505e+06	-77.6863	0.0000000E+000	0.0000000E+000	0.0000000E+000	77.6863	0.0000000E+000	0.0000000E+000	0.0000000E+000	-77.6863	0.0000000E+000	0.0000000E+000	0.0000000E+000	-12.3137	0.0000000E+000	0.0000000E+000	0.0000000E+000	12.3137	4.58114	77.6863	-7.58307e-06	-7.59064e-09	5.86629e-07	-8.58235e-07	1.44486e-06	1.67137	784978	1.14842e+06	1.9334e+06
0.316193	42.2088	21.35	47.3012	-26.8311	1832.89	0.678587	-0.000521858	23576	4803.1	1	12	0.0103262	0.000218308	0	5.08237e-05	-1.06436	0.0369205	-9.22545	169.121	166.933	27.1134	-13.0466	214.684	209.142	48.4634	0.0188651	0.00954231	0.0211411	26.8311	4.8031e+06	9.49569e+06	1.06413e+07	-63.1689	0.0000000E+000	0.0000000E+000	0.0000000E+000	63.1689	0.0000000E+000	0.0000000E+000	0.0000000E+000	-63.1689	0.0000000E+000	0.0000000E+000	0.0000000E+000	-26.8311	0.0000000E+000	0.0000000E+000	0.0000000E+000	26.8311	1.97699	63.1689	1.12326e-05	-7.18296e-09	-3.54126e-07	5.55444e-07	-9.0957e-07	1.74295	1.30033e+06	2.03956e+06	3.33989e+06
0.0999041	49.7744	56.9021	75.5999	-48.8226	1878.1	0.678592	0.000238513	27996.8	15860.7	1	12	0.0103304	0.000136646	0	0.000109523	-1.01221	0.0236187	-5.88897	172.846	171.934	17.7342	-18.6054	233.934	221.708	74.6363	0.00870891	0.00995602	0.0132275	48.8226	1.58607e+07	1.3874e+07	2.10725e+07	-41.1774	0.0000000E+000	0.0000000E+000	0.0000000E+000	41.1774	0.0000000E+000	0.0000000E+000	0.0000000E+000	-41.1774	0.0000000E+000	0.0000000E+000	0.0000000E+000	-48.8226	0.0000000E+000	0.0000000E+000	0.0000000E+000	48.8226	0.874738	41.1774	1.42604e-06	-1.54789e-08	1.61853e-07	-2.41425e-07	4.03278e-07	1.6908	2.8451e+06	4.24385e+06	7.08894e+06
0.0315922	72.7601	159.19	175.03	-65.4366	2020.99	0.678588	0.000470765	31646.4	26177.7	1	12	0.0103304	5.90206e-05	0	-3.63794e-06	-1.01387	0.00880585	-3.7569	149.2	148.879	9.77607	-37.32	278.7	221.639	168.966	0.00237502	0.00519626	0.0057133	65.4366	2.61777e+07	1.19649e+07	2.87824e+07	-24.5634	0.0000000E+000	0.0000000E+000	0.0000000E+000	24.5634	0.0000000E+000	0.0000000E+000	0.0000000E+000	-24.5634	0.0000000E+000	0.0000000E+000	0.0000000E+000	-65.4366	0.0000000E+000	0.0000000E+000	0.0000000E+000	65.4366	0.457064	24.5634	-3.17457e-05	5.14153e-10	3.19456e-07	-4.77296e-07	7.96751e-07	1.69246	1.44146e+06	2.15367e+06	3.59513e+06
0.0100092	190.277	429.941	470.165	-66.1275	2518.82	0.678594	0.000496711	36983.9	30926.5	1	13	0.0103294	2.19697e-05	0	0.000158432	-1.01761	0.00350925	-8.04926	159.731	158.157	22.3663	-52.3912	570.954	348.435	452.307	0.00086077	0.00194495	0.00212691	66.1275	3.09265e+07	1.3687e+07	3.38199e+07	-23.8725	0.0000000E+000	0.0000000E+000	0.0000000E+000	23.8725	0.0000000E+000	0.0000000E+000	0.0000000E+000	-23.8725	0.0000000E+000	0.0000000E+000	0.0000000E+000	-66.1275	0.0000000E+000	0.0000000E+000	0.0000000E+000	66.1275	0.442566	23.8725	8.88981e-05	-2.23913e-08	3.37065e-07	-5.05459e-07	8.42524e-07	1.69621	1.36618e+06	2.0487e+06	3.41488e+06