Folder: echemistpy/docs/examples/XAS/Echem/Operando2/Cell4_Buffers+Fe2+

Note: docs/README.md
# 文档概览

`docs/Characterization/` 目录保留了 EQCM、XRD、XPS 等实验表征资料，可在撰写技术文档或学术报告时引用。
后续若集成 Sphinx/MkDocs，可在本目录下新增 `conf.py` 或 `mkdocs.yml`。

File: HAC_NH3_Fe_01_01_OCV_C03.mpt
EC-Lab ASCII FILE
Nb header lines : 53

Open Circuit Voltage

Run on channel : 3 (SN 52371)
User :
CE vs. WE compliance from -10 V to 10 V
Electrode connection : standard
Potential control : Ewe
Ewe ctrl range : min = 0.00 V, max = 3.00 V
Safety Limits :
	Do not start on E overload
Acquisition started on : 12/12/2025 12:29:39.154
Technique started on : 12/12/2025 12:29:39.654
Loaded Setting File :  L:\projects\cycle2025-II\20250340369-skhabazian\EC_lab\Cell C\CellC_01.mps
Saved on :
	File : HAC_NH3_Fe_01_01_OCV_C03.mpr
	Directory : L:\projects\cycle2025-II\20250340369-skhabazian\EC_lab\Cell4_Buffers+Fe2+\
	Host : 84.89.228.57
Device : VSP (SN 2155)
Address : 10.0.48.130
EC-LAB for windows v11.61 (software)
Internet server v11.61 (firmware)
Command interpretor v11.61 (firmware)
Electrode material :
Initial state :
Electrolyte :
Comments :
Mass of active material : 0.001 mg
 at x = 0.000
Molecular weight of active material (at x = 0) : 0.001 g/mol
Atomic weight of intercalated ion : 0.001 g/mol
Acquisition started at : xo = 0.000
Number of e- transfered per intercalated ion : 1
for DX = 1, DQ = 26.802 mA.h
Battery capacity : 0.000 A.h
Electrode surface area : 0.000 cm²
Characteristic mass : 0.001 g
Volume (V) : 0.001 cm³
Text export
   Mode : Standard
   Time format : Absolute MMDDYYYY
Cycle Definition : Charge/Discharge alternance
tR (h:m:s)          20:00:30.0000
dER/dt (mV/h)       0.0
record              <Ewe>
dER (mV)            0.00
dtR (s)             0.5000
E range min (V)     0.000
E range max (V)     3.000

mode	error	time/s	<Ewe/V>
3	0	12/12/2025 12:29:39.6540	1.14118
3	0	12/12/2025 12:29:56.6540	1.14118
3	0	12/12/2025 12:30:13.6540	1.14117
3	0	12/12/2025 12:30:30.6540	1.14119
3	0	12/12/2025 12:30:47.6540	1.14119
3	0	12/12/2025 12:31:04.6540	1.14118
3	0	12/12/2025 12:31:21.6540	1.14118
3	0	12/12/2025 12:31:38.6540	1.14119
3	0	12/12/2025 12:31:55.6540	1.14117
3	0	12/12/2025 12:32:12.6540	1.14118
3	0	12/12/2025 12:32:29.6540	1.14118
3	0	12/12/2025 12:32:46.6540	1.14119
3	0	12/12/2025 12:33:03.6540	1.14118
3	0	12/12/2025 12:33:20.6540	1.14118
3	0	12/12/2025 12:33:37.6540	1.14119
3	0	12/12/2025 12:33:54.6540	1.14118
3	0	12/12/2025 12:34:11.6540	1.14122
3	0	12/12/2025 12:34:28.6540	1.14121
3	0	12/12/2025 12:34:45.6540	1.14122
3	0	12/12/2025 12:35:02.6540	1.14122
3	0	12/12/2025 12:35:19.6540	1.14119
3	0	12/12/2025 12:35:36.6540	1.1412
3	0	12/12/2025 12:35:53.6540	1.14118
3	0	12/12/2025 12:36:10.6540	1.14117
3	0	12/12/2025 12:36:27.6540	1.14118
3	0	12/12/2025 12:36:44.6540	1.1412
3	0	12/12/2025 12:37:01.6540	1.1412
3	0	12/12/2025 12:37:18.6540	1.14121
3	0	12/12/2025 12:37:35.6540	1.14121
3	0	12/12/2025 12:37:52.6540	1.14119
3	0	12/12/2025 12:38:09.6540	1.14119
3	0	12/12/2025 12:38:26.6540	1.1412
3	0	12/12/2025 12:38:43.6540	1.14122
3	0	12/12/2025 12:39:00.6540	1.14121
3	0	12/12/2025 12:39:17.6540	1.14118
3	0	12/12/2025 12:39:34.6540	1.14118
3	0	12/12/2025 12:39:51.6540	1.14121
3	0	12/12/2025 12:40:08.6540	1.14119
3	0	12/12/2025 12:40:25.6540	1.1412
3	0	12/12/2025 12:40:42.6540	1.14119
3	0	12/12/2025 12:40:59.6540	1.14115
3	0	12/12/2025 12:41:16.6540	1.14112
3	0	12/12/2025 12:41:33.6540	1.1412
3	0	12/12/2025 12:41:50.6540	1.14121
3	0	12/12/2025 12:42:07.6540	1.14123
3	0	12/12/2025 12:42:24.6540	1.14123
3	0	12/12/2025 12:42:41.6540	1.14121
3	0	12/12/2025 12:42:58.6540	1.14125
3	0	12/12/2025 12:43:15.6540	1.14123
3	0	12/12/2025 12:43:32.6540	1.14124
3	0	12/12/2025 12:43:49.6540	1.14123
3	0	12/12/2025 12:44:06.6540	1.14122
3	0	12/12/2025 12:44:23.6540	1.1412
3	0	12/12/2025 12:44:40.6540	1.14122
3	0	12/12/2025 12:44:57.6540	1.14122
3	0	12/12/2025 12:45:14.6540	1.14119
3	0	12/12/2025 12:45:31.6540	1.14122
3	0	12/12/2025 12:45:48.6540	1.14119
3	0	12/12/2025 12:46:05.6540	1.1412
3	0	12/12/2025 12:46:22.6540	1.14121
3	0	12/12/2025 12:46:39.6540	1.1412
3	0	12/12/2025 12:46:56.6540	1.14118
3	0	12/12/2025 12:47:13.6540	1.14118
3	0	12/12/2025 12:47:30.6540	1.14117
3	0	12/12/2025 12:47:47.6540	1.14118
3	0	12/12/2025 12:48:04.6540	1.14119
3	0	12/12/2025 12:48:21.6540	1.14119
3	0	12/12/2025 12:48:38.6540	1.14116
3	0	12/12/2025 12:48:55.6540	1.14118
3	0	12/12/2025 12:49:12.6540	1.14119
3	0	12/12/2025 12:49:29.6540	1.14117
3	0	12/12/2025 12:49:46.6540	1.14118
3	0	12/12/2025 12:50:03.6540	1.14117
3	0	12/12/2025 12:50:20.6540	1.14115
3	0	12/12/2025 12:50:37.6540	1.14116
3	0	12/12/2025 12:50:54.6540	1.14114
3	0	12/12/2025 12:51:11.6540	1.14113
3	0	12/12/2025 12:51:28.6540	1.1412
3	0	12/12/2025 12:51:45.6540	1.14121
3	0	12/12/2025 12:52:02.6540	1.14118
3	0	12/12/2025 12:52:19.6540	1.1412
3	0	12/12/2025 12:52:36.6540	1.14118
3	0	12/12/2025 12:52:53.6540	1.14115
3	0	12/12/2025 12:53:10.6540	1.14118
3	0	12/12/2025 12:53:27.6540	1.14116
3	0	12/12/2025 12:53:44.6540	1.14112
3	0	12/12/2025 12:54:01.6540	1.14114
3	0	12/12/2025 12:54:18.6540	1.14115
3	0	12/12/2025 12:54:35.6540	1.14114
3	0	12/12/2025 12:54:52.6540	1.14115
3	0	12/12/2025 12:55:09.6540	1.14116
3	0	12/12/2025 12:55:26.6540	1.14113
3	0	12/12/2025 12:55:43.6540	1.14113
3	0	12/12/2025 12:56:00.6540	1.14113
3	0	12/12/2025 12:56:17.6540	1.14112
3	0	12/12/2025 12:56:34.6540	1.14113
3	0	12/12/2025 12:56:51.6540	1.14114
3	0	12/12/2025 12:57:08.6540	1.14111
3	0	12/12/2025 12:57:25.6540	1.14113
3	0	12/12/2025 12:57:42.6540	1.14114
3	0	12/12/2025 12:57:59.6540	1.14114
3	0	12/12/2025 12:58:16.6540	1.14116
3	0	12/12/2025 12:58:33.6540	1.14117
3	0	12/12/2025 12:58:50.6540	1.14116
3	0	12/12/2025 12:59:07.6540	1.14116
3	0	12/12/2025 12:59:24.6540	1.14116
3	0	12/12/2025 12:59:41.6540	1.14115
3	0	12/12/2025 12:59:58.6540	1.14114
3	0	12/12/2025 13:00:15.6540	1.14115
3	0	12/12/2025 13:00:32.6540	1.14114
3	0	12/12/2025 13:00:49.6540	1.14113
3	0	12/12/2025 13:01:06.6540	1.14115
3	0	12/12/2025 13:01:23.6540	1.14114
3	0	12/12/2025 13:01:40.6540	1.14112
3	0	12/12/2025 13:01:57.6540	1.14112
3	0	12/12/2025 13:02:14.6540	1.14111
3	0	12/12/2025 13:02:31.6540	1.14109
3	0	12/12/2025 13:02:48.6539	1.14111
3	0	12/12/2025 13:03:05.6539	1.14109
3	0	12/12/2025 13:03:22.6539	1.14108
3	0	12/12/2025 13:03:39.6539	1.14112
3	0	12/12/2025 13:03:56.6539	1.14111
3	0	12/12/2025 13:04:13.6539	1.14109
3	0	12/12/2025 13:04:30.6539	1.14109
3	0	12/12/2025 13:04:47.6539	1.14107
3	0	12/12/2025 13:05:04.6539	1.14105
3	0	12/12/2025 13:05:21.6539	1.14107
3	0	12/12/2025 13:05:38.6539	1.14107
3	0	12/12/2025 13:05:55.6539	1.14106
3	0	12/12/2025 13:06:12.6539	1.14106
3	0	12/12/2025 13:06:29.6539	1.14105
3	0	12/12/2025 13:06:46.6539	1.14105
3	0	12/12/2025 13:07:03.6539	1.14107
3	0	12/12/2025 13:07:20.6539	1.14107
3	0	12/12/2025 13:07:37.6539	1.14107
3	0	12/12/2025 13:07:54.6539	1.14106
3	0	12/12/2025 13:08:11.6539	1.14108
3	0	12/12/2025 13:08:28.6539	1.14107
3	0	12/12/2025 13:08:45.6539	1.14106
3	0	12/12/2025 13:09:02.6539	1.14106
3	0	12/12/2025 13:09:19.6539	1.14107
3	0	12/12/2025 13:09:36.6539	1.14106
3	0	12/12/2025 13:09:53.6539	1.14107
3	0	12/12/2025 13:10:10.6539	1.14108
3	0	12/12/2025 13:10:27.6539	1.14106
3	0	12/12/2025 13:10:44.6539	1.14106
3	0	12/12/2025 13:11:01.6539	1.14106
3	0	12/12/2025 13:11:18.6539	1.14104
3	0	12/12/2025 13:11:35.6539	1.14107
3	0	12/12/2025 13:11:52.6539	1.14106
3	0	12/12/2025 13:12:09.6539	1.14106
3	0	12/12/2025 13:12:26.6539	1.14103
3	0	12/12/2025 13:12:43.6539	1.14106
3	0	12/12/2025 13:13:00.6539	1.14102
3	0	12/12/2025 13:13:17.6539	1.14104
3	0	12/12/2025 13:13:34.6539	1.14106
[...]
3	0	12/12/2025 13:18:06.6539	1.14098
3	0	12/12/2025 13:18:23.6539	1.14096
3	0	12/12/2025 13:18:40.6539	1.14098
3	0	12/12/2025 13:18:57.6539	1.14098
3	0	12/12/2025 13:19:14.6539	1.14097
3	0	12/12/2025 13:19:31.6539	1.141
3	0	12/12/2025 13:19:48.6539	1.14098
3	0	12/12/2025 13:20:05.6539	1.14096
3	0	12/12/2025 13:20:22.6539	1.14097
3	0	12/12/2025 13:20:39.6539	1.14096
3	0	12/12/2025 13:20:56.6539	1.14096
3	0	12/12/2025 13:21:13.6539	1.14098
3	0	12/12/2025 13:21:30.6539	1.14096
3	0	12/12/2025 13:21:47.6539	1.14096
3	0	12/12/2025 13:22:04.6539	1.14098
3	0	12/12/2025 13:22:21.6539	1.14096
3	0	12/12/2025 13:22:38.6539	1.14097
3	0	12/12/2025 13:22:55.6539	1.14097
3	0	12/12/2025 13:23:12.6539	1.14095
3	0	12/12/2025 13:23:29.6539	1.14097
3	0	12/12/2025 13:23:46.6539	1.14096
3	0	12/12/2025 13:24:03.6539	1.14096
3	0	12/12/2025 13:24:20.6539	1.14096
3	0	12/12/2025 13:24:37.6539	1.14095
3	0	12/12/2025 13:24:54.6539	1.14094
3	0	12/12/2025 13:25:11.6539	1.14093
3	0	12/12/2025 13:25:28.6539	1.14094
3	0	12/12/2025 13:25:45.6539	1.14093
3	0	12/12/2025 13:26:02.6539	1.14094
3	0	12/12/2025 13:26:19.6539	1.14092
3	0	12/12/2025 13:26:36.6539	1.14092
3	0	12/12/2025 13:26:53.6539	1.14092
3	0	12/12/2025 13:27:10.6539	1.14091
3	0	12/12/2025 13:27:27.6539	1.14093
3	0	12/12/2025 13:27:44.6539	1.14091
3	0	12/12/2025 13:28:01.6539	1.14089
3	0	12/12/2025 13:28:18.6539	1.1409
3	0	12/12/2025 13:28:35.6539	1.1409
3	0	12/12/2025 13:28:52.6539	1.1409
3	0	12/12/2025 13:29:09.6539	1.14091
3	0	12/12/2025 13:29:26.6539	1.1409
3	0	12/12/2025 13:29:43.6539	1.14089
3	0	12/12/2025 13:30:00.6539	1.1409
3	0	12/12/2025 13:30:17.6539	1.14091
3	0	12/12/2025 13:30:34.6539	1.14091
3	0	12/12/2025 13:30:51.6539	1.1409
3	0	12/12/2025 13:31:08.6539	1.14089
3	0	12/12/2025 13:31:25.6539	1.14091
3	0	12/12/2025 13:31:42.6539	1.14089
3	0	12/12/2025 13:31:59.6539	1.14092
3	0	12/12/2025 13:32:16.6539	1.14091
3	0	12/12/2025 13:32:33.6539	1.14088
3	0	12/12/2025 13:32:50.6539	1.14089
3	0	12/12/2025 13:33:07.6539	1.14088
3	0	12/12/2025 13:33:24.6539	1.14088
3	0	12/12/2025 13:33:41.6539	1.1409
3	0	12/12/2025 13:33:58.6539	1.14088
3	0	12/12/2025 13:34:15.6539	1.14086
3	0	12/12/2025 13:34:32.6539	1.14087
3	0	12/12/2025 13:34:49.6539	1.14087
3	0	12/12/2025 13:35:06.6539	1.14087
3	0	12/12/2025 13:35:23.6539	1.14087
3	0	12/12/2025 13:35:40.6539	1.14084
3	0	12/12/2025 13:35:57.6539	1.14085
3	0	12/12/2025 13:36:14.6539	1.14082
3	0	12/12/2025 13:36:31.6539	1.14085
3	0	12/12/2025 13:36:48.6539	1.14085
3	0	12/12/2025 13:37:05.6539	1.14083
3	0	12/12/2025 13:37:22.6539	1.14086
3	0	12/12/2025 13:37:39.6539	1.14083
3	0	12/12/2025 13:37:56.6539	1.14083
3	0	12/12/2025 13:38:13.6539	1.14083
3	0	12/12/2025 13:38:30.6539	1.14084
3	0	12/12/2025 13:38:47.6539	1.14086
3	0	12/12/2025 13:39:04.6539	1.14083
3	0	12/12/2025 13:39:21.6539	1.14083
3	0	12/12/2025 13:39:38.6539	1.14084
3	0	12/12/2025 13:39:55.6539	1.14082
3	0	12/12/2025 13:40:12.6539	1.14086
3	0	12/12/2025 13:40:29.6539	1.14086
3	0	12/12/2025 13:40:46.6539	1.14084
3	0	12/12/2025 13:41:03.6539	1.14083
3	0	12/12/2025 13:41:20.6539	1.1408
3	0	12/12/2025 13:41:37.6539	1.14083
3	0	12/12/2025 13:41:54.6539	1.14083
3	0	12/12/2025 13:42:11.6539	1.14084
3	0	12/12/2025 13:42:28.6539	1.14085
3	0	12/12/2025 13:42:45.6539	1.14082
3	0	12/12/2025 13:43:02.6539	1.14082
3	0	12/12/2025 13:43:19.6539	1.14081
3	0	12/12/2025 13:43:36.6539	1.1408
3	0	12/12/2025 13:43:53.6539	1.14083
3	0	12/12/2025 13:44:10.6539	1.14081
3	0	12/12/2025 13:44:27.6539	1.14083
3	0	12/12/2025 13:44:44.6539	1.14081
3	0	12/12/2025 13:45:01.6539	1.14079
3	0	12/12/2025 13:45:18.6539	1.14081
3	0	12/12/2025 13:45:35.6539	1.14077
3	0	12/12/2025 13:45:37.2201	1.1408

File: HAC_NH3_Fe_01_02_GCPL_C03.mpt
EC-Lab ASCII FILE
Nb header lines : 80

Galvanostatic Cycling with Potential Limitation

Run on channel : 3 (SN 52371)
User :
CE vs. WE compliance from -10 V to 10 V
Electrode connection : standard
Potential control : Ewe
Ewe ctrl range : min = 0.00 V, max = 3.00 V
Safety Limits :
	Do not start on E overload
Acquisition started on : 12/12/2025 12:29:39.154
Technique started on : 12/12/2025 13:45:37.221
Loaded Setting File :  L:\projects\cycle2025-II\20250340369-skhabazian\EC_lab\Cell C\CellC_01.mps
Saved on :
	File : HAC_NH3_Fe_01_02_GCPL_C03.mpr
	Directory : L:\projects\cycle2025-II\20250340369-skhabazian\EC_lab\Cell4_Buffers+Fe2+\
	Host : 84.89.228.57
Device : VSP (SN 2155)
Address : 10.0.48.130
EC-LAB for windows v11.61 (software)
Internet server v11.61 (firmware)
Command interpretor v11.61 (firmware)
Electrode material :
Initial state :
Electrolyte :
Comments :
Mass of active material : 0.001 mg
 at x = 0.000
Molecular weight of active material (at x = 0) : 0.001 g/mol
Atomic weight of intercalated ion : 0.001 g/mol
Acquisition started at : xo = 0.000
Number of e- transfered per intercalated ion : 1
for DX = 1, DQ = 26.802 mA.h
Battery capacity : 0.000 A.h
Electrode surface area : 0.000 cm²
Characteristic mass : 0.001 g
Volume (V) : 0.001 cm³
Text export
   Mode : Standard
   Time format : Absolute MMDDYYYY
Cycle Definition : Charge/Discharge alternance
Ns                  0                   1                   2
Set I/C             I                   I                   I
Is                  0.000               300.000             -300.000
unit Is             mA                  µA                  µA
vs.                 <None>              <None>              <None>
N                   1.00                1.00                1.00
I sign              > 0                 > 0                 > 0
t1 (h:m:s)          0:00:0.0000         4:00:0.0000         10:00:0.0000
I Range             1 mA                1 mA                1 mA
Bandwidth           5                   5                   5
dE1 (mV)            0.00                0.00                0.00
dt1 (s)             0.0000              2.0000              2.0000
EM (V)              0.000               2.200               0.900
tM (h:m:s)          0:00:0.0000         0:00:0.0000         0:00:0.0000
Im                  0.000               0.000               0.000
unit Im             mA                  mA                  mA
dI/dt               0.000               0.000               0.000
dunit dI/dt         mA/s                mA/s                mA/s
E range min (V)     0.000               0.000               0.000
E range max (V)     3.000               3.000               3.000
dq                  0.000               1.000               1.000
unit dq             A.h                 A.h                 A.h
dtq (s)             0.0000              120.0000            120.0000
dQM                 0.000               0.000               0.000
unit dQM            mA.h                mA.h                mA.h
dxM                 0.000               0.000               0.000
delta SoC (%)       pass                pass                pass
tR (h:m:s)          0:01:0.0000         0:00:0.0000         0:00:0.0000
dER/dt (mV/h)       0.0                 0.1                 0.1
dER (mV)            0.00                0.00                0.00
dtR (s)             1.0000              120.0000            120.0000
EL (V)              pass                pass                pass
goto Ns'            0                   0                   1
nc cycles           0                   0                   100

mode	ox/red	error	control changes	Ns changes	counter inc.	Ns	time/s	dq/mA.h	(Q-Qo)/mA.h	control/V/mA	Ewe/V	I Range	Q charge/discharge/mA.h	half cycle	Energy we charge/W.h	Energy we discharge/W.h	Capacitance charge/µF	Capacitance discharge/µF	step time/s	<I>/mA	x	Q discharge/mA.h	Q charge/mA.h	Capacity/mA.h	Efficiency/%	control/V	control/mA	cycle number	Pwe/W	Rwe/Ohm
3	0	0	0	0	0	0	12/12/2025 13:45:37.2207	0.000000000000000E+000	0.000000000000000E+000	0.0000000E+000	1.14107	14	0.000000000000000E+000	0	0.000000000000000E+000	0.000000000000000E+000	0.000000000000000E+000	0.000000000000000E+000	4558.07	0.000000000000000E+000	0.000000000000000E+000	0.000000000000000E+000	0.000000000000000E+000	0.000000000000000E+000	0.0000000E+000	0.0000000E+000	0.0000000E+000	0.000000000000000E+000	0.0000000E+000	0.0000000E+000
3	0	0	0	0	0	0	12/12/2025 13:46:21.2207	0.000000000000000E+000	0.000000000000000E+000	0.0000000E+000	1.14085	14	0.000000000000000E+000	0	0.000000000000000E+000	0.000000000000000E+000	0.000000000000000E+000	0.000000000000000E+000	4602.07	0.000000000000000E+000	0.000000000000000E+000	0.000000000000000E+000	0.000000000000000E+000	0.000000000000000E+000	0.0000000E+000	0.0000000E+000	0.0000000E+000	0.000000000000000E+000	0.0000000E+000	0.0000000E+000
1	1	0	1	0	0	1	12/12/2025 13:47:31.2209	0.000166687	0.00450068	0.3	1.43047	12	0.00450068	0	6.09948e-06	0.000000000000000E+000	207608	0.000000000000000E+000	4672.07	0.300037	-0.000167926	0.000000000000000E+000	0.00450068	0.00450068	0.0000000E+000	0.0000000E+000	0.3	0.000000000000000E+000	0.000429195	4767.66
1	1	0	1	0	0	1	12/12/2025 13:48:59.2209	0.000166684	0.0118348	0.3	1.7556	12	0.0118348	0	1.78228e-05	0.000000000000000E+000	105676	0.000000000000000E+000	4760.07	0.30003	-0.000441573	0.000000000000000E+000	0.0118348	0.0118348	0.0000000E+000	0.0000000E+000	0.3	0.000000000000000E+000	0.000526734	5851.41
1	1	0	1	0	0	1	12/12/2025 13:50:27.2209	0.000166683	0.0191689	0.3	1.81797	12	0.0191689	0	3.11202e-05	0.000000000000000E+000	148231	0.000000000000000E+000	4848.07	0.300029	-0.000715217	0.000000000000000E+000	0.0191689	0.0191689	0.0000000E+000	0.0000000E+000	0.3	0.000000000000000E+000	0.000545445	6059.32
1	1	0	1	0	0	1	12/12/2025 13:51:55.2209	0.000166683	0.026503	0.3	1.84242	12	0.026503	0	4.45277e-05	0.000000000000000E+000	194720	0.000000000000000E+000	4936.07	0.300029	-0.000988861	0.000000000000000E+000	0.026503	0.026503	0.0000000E+000	0.0000000E+000	0.3	0.000000000000000E+000	0.000552778	6140.81
1	1	0	1	0	0	1	12/12/2025 13:53:23.2209	0.000166681	0.0338369	0.3	1.87874	12	0.0338369	0	5.81763e-05	0.000000000000000E+000	231446	0.000000000000000E+000	5024.07	0.300025	-0.0012625	0.000000000000000E+000	0.0338369	0.0338369	0.0000000E+000	0.0000000E+000	0.3	0.000000000000000E+000	0.00056367	6261.95
1	1	0	1	0	0	1	12/12/2025 13:54:51.2209	0.000166682	0.0411709	0.3	1.89036	12	0.0411709	0	7.20158e-05	0.000000000000000E+000	275531	0.000000000000000E+000	5112.07	0.300028	-0.00153614	0.000000000000000E+000	0.0411709	0.0411709	0.0000000E+000	0.0000000E+000	0.3	0.000000000000000E+000	0.000567159	6300.6
1	1	0	1	0	0	1	12/12/2025 13:56:19.2209	0.000166678	0.0485047	0.3	1.8943	12	0.0485047	0	8.59013e-05	0.000000000000000E+000	322248	0.000000000000000E+000	5200.07	0.30002	-0.00180978	0.000000000000000E+000	0.0485047	0.0485047	0.0000000E+000	0.0000000E+000	0.3	0.000000000000000E+000	0.000568329	6313.92
1	1	0	1	0	0	1	12/12/2025 13:57:47.2209	0.000166679	0.0558386	0.3	1.89659	12	0.0558386	0	9.98081e-05	0.000000000000000E+000	369411	0.000000000000000E+000	5288.07	0.300023	-0.00208341	0.000000000000000E+000	0.0558386	0.0558386	0.0000000E+000	0.0000000E+000	0.3	0.000000000000000E+000	0.00056902	6321.49
[...]
1	1	0	1	0	0	1	12/12/2025 14:16:51.2209	0.00016668	0.15118	0.3	1.8861	12	0.15118	0	0.000280199	0.000000000000000E+000	1.01982e+06	0.000000000000000E+000	6432.07	0.300024	-0.00564073	0.000000000000000E+000	0.15118	0.15118	0.0000000E+000	0.0000000E+000	0.3	0.000000000000000E+000	0.000565877	6286.5
1	1	0	1	0	0	1	12/12/2025 14:18:19.2209	0.00016668	0.158514	0.3	1.89106	12	0.158514	0	0.000294046	0.000000000000000E+000	1.05945e+06	0.000000000000000E+000	6520.07	0.300024	-0.00591437	0.000000000000000E+000	0.158514	0.158514	0.0000000E+000	0.0000000E+000	0.3	0.000000000000000E+000	0.000567363	6303.03
1	1	0	1	0	0	1	12/12/2025 14:19:47.2209	0.000166682	0.165848	0.3	1.89133	12	0.165848	0	0.00030792	0.000000000000000E+000	1.10792e+06	0.000000000000000E+000	6608.07	0.300027	-0.00618801	0.000000000000000E+000	0.165848	0.165848	0.0000000E+000	0.0000000E+000	0.3	0.000000000000000E+000	0.00056745	6303.85
1	1	0	1	0	0	1	12/12/2025 14:21:15.2209	0.000166683	0.173182	0.3	1.88709	12	0.173182	0	0.000321791	0.000000000000000E+000	1.16607e+06	0.000000000000000E+000	6696.07	0.30003	-0.00646166	0.000000000000000E+000	0.173182	0.173182	0.0000000E+000	0.0000000E+000	0.3	0.000000000000000E+000	0.000566184	6289.69
1	1	0	1	0	0	1	12/12/2025 14:22:43.2209	0.000166679	0.180516	0.3	1.89034	12	0.180516	0	0.000335669	0.000000000000000E+000	1.20813e+06	0.000000000000000E+000	6784.07	0.300022	-0.0067353	0.000000000000000E+000	0.180516	0.180516	0.0000000E+000	0.0000000E+000	0.3	0.000000000000000E+000	0.000567143	6300.65
1	1	0	1	0	0	1	12/12/2025 14:24:11.2209	0.00016668	0.18785	0.3	1.89272	12	0.18785	0	0.000349548	0.000000000000000E+000	1.25166e+06	0.000000000000000E+000	6872.07	0.300025	-0.00700893	0.000000000000000E+000	0.18785	0.18785	0.0000000E+000	0.0000000E+000	0.3	0.000000000000000E+000	0.000567863	6308.55
1	1	0	1	0	0	1	12/12/2025 14:25:39.2209	0.000166684	0.195184	0.3	1.89198	12	0.195184	0	0.000363418	0.000000000000000E+000	1.30232e+06	0.000000000000000E+000	6960.07	0.300031	-0.00728257	0.000000000000000E+000	0.195184	0.195184	0.0000000E+000	0.0000000E+000	0.3	0.000000000000000E+000	0.000567652	6305.92
1	1	0	1	0	0	1	12/12/2025 14:27:07.2209	0.000166683	0.202518	0.3	1.89241	12	0.202518	0	0.00037729	0.000000000000000E+000	1.35016e+06	0.000000000000000E+000	7048.07	0.30003	-0.00755622	0.000000000000000E+000	0.202518	0.202518	0.0000000E+000	0.0000000E+000	0.3	0.000000000000000E+000	0.000567781	6307.41
1	1	0	1	0	0	1	12/12/2025 14:28:35.2209	0.00016668	0.209852	0.3	1.89312	12	0.209852	0	0.000391173	0.000000000000000E+000	1.39723e+06	0.000000000000000E+000	7136.07	0.300025	-0.00782986	0.000000000000000E+000	0.209852	0.209852	0.0000000E+000	0.0000000E+000	0.3	0.000000000000000E+000	0.000567983	6309.88
1	1	0	1	0	0	1	12/12/2025 14:30:03.2209	0.00016668	0.217186	0.3	1.89386	12	0.217186	0	0.000405045	0.000000000000000E+000	1.44407e+06	0.000000000000000E+000	7224.07	0.300024	-0.0081035	0.000000000000000E+000	0.217186	0.217186	0.0000000E+000	0.0000000E+000	0.3	0.000000000000000E+000	0.000568205	6312.37
1	0	0	0	0	0	2	12/12/2025 14:31:25.3265	-0.00016673	0.212359	-0.3	1.57972	12	-0.00583555	1	0.000407002	9.39748e-06	923879	184332	70	-0.300113	-0.00792341	0.00583555	0.000000000000000E+000	0.00583555	0.0000000E+000	0.0000000E+000	-0.3	0.000000000000000E+000	-0.000474095	5263.74
1	0	0	0	0	0	2	12/12/2025 14:32:16.5625	-0.000103037	0.208088	-0.3	1.55823	12	-0.0101068	1	0.000407002	1.60923e-05	923879	393436	121.236	-0.300107	-0.00776404	0.0101068	0.000000000000000E+000	0.0101068	0.0000000E+000	0.0000000E+000	-0.3	0.000000000000000E+000	-0.000467636	5192.24