Folder: echemistpy/docs/examples/XAS/Echem/Operando2/Cell3_Buffers

Note: docs/README.md
# 文档概览

`docs/Characterization/` 目录保留了 EQCM、XRD、XPS 等实验表征资料，可在撰写技术文档或学术报告时引用。
后续若集成 Sphinx/MkDocs，可在本目录下新增 `conf.py` 或 `mkdocs.yml`。

File: HAC_NH3_01_01_OCV_C04.mpt
EC-Lab ASCII FILE
Nb header lines : 53

Open Circuit Voltage

Run on channel : 4 (SN 52456)
User :
CE vs. WE compliance from -10 V to 10 V
Electrode connection : standard
Potential control : Ewe
Ewe ctrl range : min = 0.00 V, max = 3.00 V
Safety Limits :
	Do not start on E overload
Acquisition started on : 12/12/2025 12:28:57.704
Technique started on : 12/12/2025 12:28:58.204
Loaded Setting File :  L:\projects\cycle2025-II\20250340369-skhabazian\EC_lab\20251211.EMD.mps
Saved on :
	File : HAC_NH3_01_01_OCV_C04.mpr
	Directory : L:\projects\cycle2025-II\20250340369-skhabazian\EC_lab\Cell3_Buffers\
	Host : 84.89.228.57
Device : VSP (SN 2155)
Address : 10.0.48.130
EC-LAB for windows v11.61 (software)
Internet server v11.61 (firmware)
Command interpretor v11.61 (firmware)
Electrode material :
Initial state :
Electrolyte :
Comments :
Mass of active material : 0.001 mg
 at x = 0.000
Molecular weight of active material (at x = 0) : 0.001 g/mol
Atomic weight of intercalated ion : 0.001 g/mol
Acquisition started at : xo = 0.000
Number of e- transfered per intercalated ion : 1
for DX = 1, DQ = 26.802 mA.h
Battery capacity : 0.000 A.h
Electrode surface area : 0.000 cm²
Characteristic mass : 0.001 g
Volume (V) : 0.001 cm³
Text export
   Mode : Standard
   Time format : Absolute MMDDYYYY
Cycle Definition : Charge/Discharge alternance
tR (h:m:s)          20:00:30.0000
dER/dt (mV/h)       0.0
record              <Ewe>
dER (mV)            0.00
dtR (s)             0.5000
E range min (V)     0.000
E range max (V)     3.000

mode	error	time/s	<Ewe/V>
3	0	12/12/2025 12:28:58.2040	1.24927
3	0	12/12/2025 12:29:15.7040	1.24928
3	0	12/12/2025 12:29:33.2040	1.24929
3	0	12/12/2025 12:29:50.7040	1.24928
3	0	12/12/2025 12:30:08.2040	1.24928
3	0	12/12/2025 12:30:25.7040	1.24928
3	0	12/12/2025 12:30:43.2040	1.24928
3	0	12/12/2025 12:31:00.7040	1.24929
3	0	12/12/2025 12:31:18.2040	1.24928
3	0	12/12/2025 12:31:35.7040	1.24928
3	0	12/12/2025 12:31:53.2040	1.24928
3	0	12/12/2025 12:32:10.7040	1.24928
3	0	12/12/2025 12:32:28.2040	1.24927
3	0	12/12/2025 12:32:45.7040	1.24928
3	0	12/12/2025 12:33:03.2040	1.24927
3	0	12/12/2025 12:33:20.7040	1.24926
3	0	12/12/2025 12:33:38.2040	1.24926
3	0	12/12/2025 12:33:55.7040	1.24926
3	0	12/12/2025 12:34:13.2040	1.24926
3	0	12/12/2025 12:34:30.7040	1.24926
3	0	12/12/2025 12:34:48.2040	1.24926
3	0	12/12/2025 12:35:05.7040	1.24925
3	0	12/12/2025 12:35:23.2040	1.24925
3	0	12/12/2025 12:35:40.7040	1.24925
3	0	12/12/2025 12:35:58.2040	1.24924
3	0	12/12/2025 12:36:15.7040	1.24924
3	0	12/12/2025 12:36:33.2040	1.24924
3	0	12/12/2025 12:36:50.7040	1.24923
3	0	12/12/2025 12:37:08.2040	1.24923
3	0	12/12/2025 12:37:25.7040	1.24923
3	0	12/12/2025 12:37:43.2040	1.24923
3	0	12/12/2025 12:38:00.7040	1.24922
3	0	12/12/2025 12:38:18.2040	1.24922
3	0	12/12/2025 12:38:35.7040	1.24923
3	0	12/12/2025 12:38:53.2040	1.24923
3	0	12/12/2025 12:39:10.7040	1.24923
3	0	12/12/2025 12:39:28.2040	1.24922
3	0	12/12/2025 12:39:45.7040	1.24922
3	0	12/12/2025 12:40:03.2040	1.24922
3	0	12/12/2025 12:40:20.7040	1.24922
3	0	12/12/2025 12:40:38.2040	1.24925
3	0	12/12/2025 12:40:55.7040	1.2493
3	0	12/12/2025 12:41:13.2040	1.24932
3	0	12/12/2025 12:41:30.7040	1.24932
3	0	12/12/2025 12:41:48.2040	1.24931
3	0	12/12/2025 12:42:05.7040	1.24929
3	0	12/12/2025 12:42:23.2040	1.24927
3	0	12/12/2025 12:42:40.7040	1.24925
3	0	12/12/2025 12:42:58.2040	1.24923
3	0	12/12/2025 12:43:15.7040	1.24921
3	0	12/12/2025 12:43:33.2040	1.2492
3	0	12/12/2025 12:43:50.7040	1.24918
3	0	12/12/2025 12:44:08.2040	1.24916
3	0	12/12/2025 12:44:25.7040	1.24913
3	0	12/12/2025 12:44:43.2040	1.24912
3	0	12/12/2025 12:45:00.7040	1.2491
3	0	12/12/2025 12:45:18.2040	1.24908
3	0	12/12/2025 12:45:35.7040	1.24906
3	0	12/12/2025 12:45:53.2040	1.24905
3	0	12/12/2025 12:46:10.7040	1.24902
3	0	12/12/2025 12:46:28.2040	1.24901
3	0	12/12/2025 12:46:45.7040	1.24899
3	0	12/12/2025 12:47:03.2040	1.24897
3	0	12/12/2025 12:47:20.7040	1.24896
3	0	12/12/2025 12:47:38.2040	1.24895
3	0	12/12/2025 12:47:55.7040	1.24893
3	0	12/12/2025 12:48:13.2040	1.24891
3	0	12/12/2025 12:48:30.7040	1.2489
3	0	12/12/2025 12:48:48.2040	1.2489
3	0	12/12/2025 12:49:05.7040	1.24887
3	0	12/12/2025 12:49:23.2040	1.24885
3	0	12/12/2025 12:49:40.7040	1.24884
3	0	12/12/2025 12:49:58.2040	1.24883
3	0	12/12/2025 12:50:15.7040	1.2488
3	0	12/12/2025 12:50:33.2040	1.24879
3	0	12/12/2025 12:50:50.7040	1.24878
3	0	12/12/2025 12:51:08.2040	1.24876
3	0	12/12/2025 12:51:25.7040	1.24875
3	0	12/12/2025 12:51:43.2040	1.24873
3	0	12/12/2025 12:52:00.7040	1.24872
3	0	12/12/2025 12:52:18.2040	1.2487
3	0	12/12/2025 12:52:35.7040	1.24868
3	0	12/12/2025 12:52:53.2040	1.24866
3	0	12/12/2025 12:53:10.7040	1.24864
3	0	12/12/2025 12:53:28.2040	1.24863
3	0	12/12/2025 12:53:45.7040	1.24861
3	0	12/12/2025 12:54:03.2040	1.2486
3	0	12/12/2025 12:54:20.7040	1.24859
3	0	12/12/2025 12:54:38.2040	1.24857
3	0	12/12/2025 12:54:55.7040	1.24856
3	0	12/12/2025 12:55:13.2040	1.24854
3	0	12/12/2025 12:55:30.7040	1.24853
3	0	12/12/2025 12:55:48.2040	1.24852
3	0	12/12/2025 12:56:05.7040	1.2485
3	0	12/12/2025 12:56:23.2040	1.24848
3	0	12/12/2025 12:56:40.7040	1.24847
3	0	12/12/2025 12:56:58.2040	1.24846
3	0	12/12/2025 12:57:15.7040	1.24844
3	0	12/12/2025 12:57:33.2040	1.24843
3	0	12/12/2025 12:57:50.7040	1.24842
3	0	12/12/2025 12:58:08.2040	1.2484
3	0	12/12/2025 12:58:25.7040	1.24839
3	0	12/12/2025 12:58:43.2040	1.24837
3	0	12/12/2025 12:59:00.7040	1.24836
3	0	12/12/2025 12:59:18.2040	1.24835
3	0	12/12/2025 12:59:35.7040	1.24833
3	0	12/12/2025 12:59:53.2040	1.24832
3	0	12/12/2025 13:00:10.7040	1.2483
3	0	12/12/2025 13:00:28.2040	1.24829
3	0	12/12/2025 13:00:45.7040	1.24828
3	0	12/12/2025 13:01:03.2040	1.24826
3	0	12/12/2025 13:01:20.7040	1.24825
3	0	12/12/2025 13:01:38.2040	1.24824
3	0	12/12/2025 13:01:55.7039	1.24823
3	0	12/12/2025 13:02:13.2039	1.24821
3	0	12/12/2025 13:02:30.7039	1.2482
3	0	12/12/2025 13:02:48.2039	1.24818
3	0	12/12/2025 13:03:05.7039	1.24816
3	0	12/12/2025 13:03:23.2039	1.24815
3	0	12/12/2025 13:03:40.7039	1.24814
3	0	12/12/2025 13:03:58.2039	1.24813
3	0	12/12/2025 13:04:15.7039	1.24812
3	0	12/12/2025 13:04:33.2039	1.24811
3	0	12/12/2025 13:04:50.7039	1.2481
3	0	12/12/2025 13:05:08.2039	1.24808
3	0	12/12/2025 13:05:25.7039	1.24807
3	0	12/12/2025 13:05:43.2039	1.24806
3	0	12/12/2025 13:06:00.7039	1.24804
3	0	12/12/2025 13:06:18.2039	1.24803
3	0	12/12/2025 13:06:35.7039	1.24801
3	0	12/12/2025 13:06:53.2039	1.248
3	0	12/12/2025 13:07:10.7039	1.24799
3	0	12/12/2025 13:07:28.2039	1.24797
3	0	12/12/2025 13:07:45.7039	1.24796
3	0	12/12/2025 13:08:03.2039	1.24795
3	0	12/12/2025 13:08:20.7039	1.24794
3	0	12/12/2025 13:08:38.2039	1.24792
3	0	12/12/2025 13:08:55.7039	1.24791
3	0	12/12/2025 13:09:13.2039	1.2479
3	0	12/12/2025 13:09:30.7039	1.24789
3	0	12/12/2025 13:09:48.2039	1.24788
3	0	12/12/2025 13:10:05.7039	1.24786
3	0	12/12/2025 13:10:23.2039	1.24785
3	0	12/12/2025 13:10:40.7039	1.24784
3	0	12/12/2025 13:10:58.2039	1.24783
3	0	12/12/2025 13:11:15.7039	1.24781
3	0	12/12/2025 13:11:33.2039	1.2478
3	0	12/12/2025 13:11:50.7039	1.24778
3	0	12/12/2025 13:12:08.2039	1.24778
3	0	12/12/2025 13:12:25.7039	1.24776
3	0	12/12/2025 13:12:43.2039	1.24775
3	0	12/12/2025 13:13:00.7039	1.24774
3	0	12/12/2025 13:13:18.2039	1.24773
3	0	12/12/2025 13:13:35.7039	1.24772
3	0	12/12/2025 13:13:53.2039	1.24772
3	0	12/12/2025 13:14:10.7039	1.24772
[...]
3	0	12/12/2025 13:17:23.2039	1.24793
3	0	12/12/2025 13:17:40.7039	1.24799
3	0	12/12/2025 13:17:58.2039	1.24803
3	0	12/12/2025 13:18:15.7039	1.24807
3	0	12/12/2025 13:18:33.2039	1.2481
3	0	12/12/2025 13:18:50.7039	1.24812
3	0	12/12/2025 13:19:08.2039	1.24813
3	0	12/12/2025 13:19:25.7039	1.24815
3	0	12/12/2025 13:19:43.2039	1.24815
3	0	12/12/2025 13:20:00.7039	1.24815
3	0	12/12/2025 13:20:18.2039	1.24815
3	0	12/12/2025 13:20:35.7039	1.24814
3	0	12/12/2025 13:20:53.2039	1.24814
3	0	12/12/2025 13:21:10.7039	1.24813
3	0	12/12/2025 13:21:28.2039	1.24812
3	0	12/12/2025 13:21:45.7039	1.24812
3	0	12/12/2025 13:22:03.2039	1.24812
3	0	12/12/2025 13:22:20.7039	1.24811
3	0	12/12/2025 13:22:38.2039	1.2481
3	0	12/12/2025 13:22:55.7039	1.24808
3	0	12/12/2025 13:23:13.2039	1.24808
3	0	12/12/2025 13:23:30.7039	1.24808
3	0	12/12/2025 13:23:48.2039	1.24807
3	0	12/12/2025 13:24:05.7039	1.24807
3	0	12/12/2025 13:24:23.2039	1.24808
3	0	12/12/2025 13:24:40.7039	1.24808
3	0	12/12/2025 13:24:58.2039	1.2481
3	0	12/12/2025 13:25:15.7039	1.24811
3	0	12/12/2025 13:25:33.2039	1.24814
3	0	12/12/2025 13:25:50.7039	1.24818
3	0	12/12/2025 13:26:08.2039	1.24823
3	0	12/12/2025 13:26:25.7039	1.24828
3	0	12/12/2025 13:26:43.2039	1.24833
3	0	12/12/2025 13:27:00.7039	1.24839
3	0	12/12/2025 13:27:18.2039	1.24843
3	0	12/12/2025 13:27:35.7039	1.24847
3	0	12/12/2025 13:27:53.2039	1.2485
3	0	12/12/2025 13:28:10.7039	1.24853
3	0	12/12/2025 13:28:28.2039	1.24856
3	0	12/12/2025 13:28:45.7039	1.24856
3	0	12/12/2025 13:29:03.2039	1.24857
3	0	12/12/2025 13:29:20.7039	1.24858
3	0	12/12/2025 13:29:38.2039	1.24858
3	0	12/12/2025 13:29:55.7039	1.24858
3	0	12/12/2025 13:30:13.2039	1.24857
3	0	12/12/2025 13:30:30.7039	1.24857
3	0	12/12/2025 13:30:48.2039	1.24857
3	0	12/12/2025 13:31:05.7039	1.24856
3	0	12/12/2025 13:31:23.2039	1.24855
3	0	12/12/2025 13:31:40.7039	1.24855
3	0	12/12/2025 13:31:58.2039	1.24855
3	0	12/12/2025 13:32:15.7039	1.24854
3	0	12/12/2025 13:32:33.2039	1.24853
3	0	12/12/2025 13:32:50.7039	1.24852
3	0	12/12/2025 13:33:08.2039	1.24852
3	0	12/12/2025 13:33:25.7039	1.24852
3	0	12/12/2025 13:33:43.2039	1.24851
3	0	12/12/2025 13:34:00.7039	1.24852
3	0	12/12/2025 13:34:18.2039	1.24853
3	0	12/12/2025 13:34:35.7039	1.24855
3	0	12/12/2025 13:34:53.2039	1.24857
3	0	12/12/2025 13:35:10.7039	1.2486
3	0	12/12/2025 13:35:28.2039	1.24863
3	0	12/12/2025 13:35:45.7039	1.24867
3	0	12/12/2025 13:36:03.2039	1.2487
3	0	12/12/2025 13:36:20.7039	1.24872
3	0	12/12/2025 13:36:38.2039	1.24875
3	0	12/12/2025 13:36:55.7039	1.24876
3	0	12/12/2025 13:37:13.2039	1.24878
3	0	12/12/2025 13:37:30.7039	1.24879
3	0	12/12/2025 13:37:48.2039	1.2488
3	0	12/12/2025 13:38:05.7039	1.24881
3	0	12/12/2025 13:38:23.2039	1.24881
3	0	12/12/2025 13:38:40.7039	1.2488
3	0	12/12/2025 13:38:58.2039	1.24881
3	0	12/12/2025 13:39:15.7039	1.2488
3	0	12/12/2025 13:39:33.2039	1.24879
3	0	12/12/2025 13:39:50.7039	1.24879
3	0	12/12/2025 13:40:08.2039	1.24879
3	0	12/12/2025 13:40:25.7039	1.24878
3	0	12/12/2025 13:40:43.2039	1.24877
3	0	12/12/2025 13:41:00.7039	1.24876
3	0	12/12/2025 13:41:18.2039	1.24876
3	0	12/12/2025 13:41:35.7039	1.24874
3	0	12/12/2025 13:41:53.2039	1.24874
3	0	12/12/2025 13:42:10.7039	1.24873
3	0	12/12/2025 13:42:28.2039	1.24872
3	0	12/12/2025 13:42:45.7039	1.24871
3	0	12/12/2025 13:43:03.2039	1.2487
3	0	12/12/2025 13:43:20.7039	1.24869
3	0	12/12/2025 13:43:38.2039	1.2487
3	0	12/12/2025 13:43:55.7039	1.2487
3	0	12/12/2025 13:44:13.2039	1.2487
3	0	12/12/2025 13:44:30.7039	1.24872
3	0	12/12/2025 13:44:48.2039	1.24874
3	0	12/12/2025 13:45:05.7039	1.24877
3	0	12/12/2025 13:45:23.2039	1.2488
3	0	12/12/2025 13:45:40.7039	1.24884
3	0	12/12/2025 13:45:46.2103	1.24886

File: HAC_NH3_01_02_GCPL_C04.mpt
EC-Lab ASCII FILE
Nb header lines : 80

Galvanostatic Cycling with Potential Limitation

Run on channel : 4 (SN 52456)
User :
CE vs. WE compliance from -10 V to 10 V
Electrode connection : standard
Potential control : Ewe
Ewe ctrl range : min = 0.00 V, max = 3.00 V
Safety Limits :
	Do not start on E overload
Acquisition started on : 12/12/2025 12:28:57.704
Technique started on : 12/12/2025 13:45:46.211
Loaded Setting File :  L:\projects\cycle2025-II\20250340369-skhabazian\EC_lab\20251211.EMD.mps
Saved on :
	File : HAC_NH3_01_02_GCPL_C04.mpr
	Directory : L:\projects\cycle2025-II\20250340369-skhabazian\EC_lab\Cell3_Buffers\
	Host : 84.89.228.57
Device : VSP (SN 2155)
Address : 10.0.48.130
EC-LAB for windows v11.61 (software)
Internet server v11.61 (firmware)
Command interpretor v11.61 (firmware)
Electrode material :
Initial state :
Electrolyte :
Comments :
Mass of active material : 0.001 mg
 at x = 0.000
Molecular weight of active material (at x = 0) : 0.001 g/mol
Atomic weight of intercalated ion : 0.001 g/mol
Acquisition started at : xo = 0.000
Number of e- transfered per intercalated ion : 1
for DX = 1, DQ = 26.802 mA.h
Battery capacity : 0.000 A.h
Electrode surface area : 0.000 cm²
Characteristic mass : 0.001 g
Volume (V) : 0.001 cm³
Text export
   Mode : Standard
   Time format : Absolute MMDDYYYY
Cycle Definition : Charge/Discharge alternance
Ns                  0                   1                   2
Set I/C             I                   I                   I
Is                  0.000               300.000             -300.000
unit Is             mA                  µA                  µA
vs.                 <None>              <None>              <None>
N                   1.00                1.00                1.00
I sign              > 0                 > 0                 > 0
t1 (h:m:s)          0:00:0.0000         4:00:0.0000         10:00:0.0000
I Range             1 mA                1 mA                1 mA
Bandwidth           5                   5                   5
dE1 (mV)            0.00                0.00                0.00
dt1 (s)             0.0000              2.0000              2.0000
EM (V)              0.000               2.200               0.900
tM (h:m:s)          0:00:0.0000         0:00:0.0000         0:00:0.0000
Im                  0.000               0.000               0.000
unit Im             mA                  mA                  mA
dI/dt               0.000               0.000               0.000
dunit dI/dt         mA/s                mA/s                mA/s
E range min (V)     0.000               0.000               0.000
E range max (V)     3.000               3.000               3.000
dq                  0.000               1.000               1.000
unit dq             A.h                 A.h                 A.h
dtq (s)             0.0000              120.0000            120.0000
dQM                 0.000               0.000               0.000
unit dQM            mA.h                mA.h                mA.h
dxM                 0.000               0.000               0.000
delta SoC (%)       pass                pass                pass
tR (h:m:s)          0:01:0.0000         0:00:0.0000         0:00:0.0000
dER/dt (mV/h)       0.0                 0.1                 0.1
dER (mV)            0.00                0.00                0.00
dtR (s)             1.0000              120.0000            120.0000
EL (V)              pass                pass                pass
goto Ns'            0                   0                   1
nc cycles           0                   0                   100

mode	ox/red	error	control changes	Ns changes	counter inc.	Ns	time/s	dq/mA.h	(Q-Qo)/mA.h	control/V/mA	Ewe/V	I Range	Q charge/discharge/mA.h	half cycle	Energy we charge/W.h	Energy we discharge/W.h	Capacitance charge/µF	Capacitance discharge/µF	step time/s	<I>/mA	x	Q discharge/mA.h	Q charge/mA.h	Capacity/mA.h	Efficiency/%	control/V	control/mA	cycle number	Pwe/W	Rwe/Ohm
3	0	0	1	0	0	0	12/12/2025 13:45:46.2109	0.000000000000000E+000	0.000000000000000E+000	0.0000000E+000	1.24877	14	0.000000000000000E+000	0	0.000000000000000E+000	0.000000000000000E+000	0.000000000000000E+000	0.000000000000000E+000	4608.51	0.000000000000000E+000	0.000000000000000E+000	0.000000000000000E+000	0.000000000000000E+000	0.000000000000000E+000	0.0000000E+000	0.0000000E+000	0.0000000E+000	0.000000000000000E+000	0.0000000E+000	0.0000000E+000
3	0	0	1	0	0	0	12/12/2025 13:46:27.2109	0.000000000000000E+000	0.000000000000000E+000	0.0000000E+000	1.24896	14	0.000000000000000E+000	0	0.000000000000000E+000	0.000000000000000E+000	0.000000000000000E+000	0.000000000000000E+000	4649.51	0.000000000000000E+000	0.000000000000000E+000	0.000000000000000E+000	0.000000000000000E+000	0.000000000000000E+000	0.0000000E+000	0.0000000E+000	0.0000000E+000	0.000000000000000E+000	0.0000000E+000	0.0000000E+000
1	1	0	0	0	0	1	12/12/2025 13:47:28.2111	0.000166724	0.00350134	0.3	1.61876	12	0.00350134	0	5.6527e-06	0.000000000000000E+000	41263.7	0.000000000000000E+000	4710.51	0.300104	-0.00013064	0.000000000000000E+000	0.00350134	0.00350134	0.0000000E+000	0.0000000E+000	0.3	0.000000000000000E+000	0.000485795	5393.99
1	1	0	0	0	0	1	12/12/2025 13:48:50.2111	0.000166719	0.0103369	0.3	1.63901	12	0.0103369	0	1.67968e-05	0.000000000000000E+000	114247	0.000000000000000E+000	4792.51	0.300095	-0.000385684	0.000000000000000E+000	0.0103369	0.0103369	0.0000000E+000	0.0000000E+000	0.3	0.000000000000000E+000	0.000491858	5461.64
1	1	0	0	0	0	1	12/12/2025 13:50:12.2111	0.00016672	0.0171724	0.3	1.65244	12	0.0171724	0	2.8049e-05	0.000000000000000E+000	182282	0.000000000000000E+000	4874.51	0.300096	-0.000640726	0.000000000000000E+000	0.0171724	0.0171724	0.0000000E+000	0.0000000E+000	0.3	0.000000000000000E+000	0.00049589	5506.35
1	1	0	0	0	0	1	12/12/2025 13:51:34.2111	0.000166719	0.0240079	0.3	1.66323	12	0.0240079	0	3.9386e-05	0.000000000000000E+000	246979	0.000000000000000E+000	4956.51	0.300094	-0.000895768	0.000000000000000E+000	0.0240079	0.0240079	0.0000000E+000	0.0000000E+000	0.3	0.000000000000000E+000	0.000499125	5542.36
1	1	0	0	0	0	1	12/12/2025 13:52:56.2111	0.000166719	0.0308434	0.3	1.6729	12	0.0308434	0	5.07968e-05	0.000000000000000E+000	308767	0.000000000000000E+000	5038.51	0.300094	-0.00115081	0.000000000000000E+000	0.0308434	0.0308434	0.0000000E+000	0.0000000E+000	0.3	0.000000000000000E+000	0.000502026	5574.59
1	1	0	0	0	0	1	12/12/2025 13:54:18.2111	0.000166719	0.0376789	0.3	1.68451	12	0.0376789	0	6.22749e-05	0.000000000000000E+000	365395	0.000000000000000E+000	5120.51	0.300095	-0.00140585	0.000000000000000E+000	0.0376789	0.0376789	0.0000000E+000	0.0000000E+000	0.3	0.000000000000000E+000	0.000505513	5613.27
1	1	0	0	0	0	1	12/12/2025 13:55:40.2111	0.00016672	0.0445144	0.3	1.69359	12	0.0445144	0	7.38214e-05	0.000000000000000E+000	421378	0.000000000000000E+000	5202.51	0.300096	-0.00166089	0.000000000000000E+000	0.0445144	0.0445144	0.0000000E+000	0.0000000E+000	0.3	0.000000000000000E+000	0.000508239	5643.5
1	1	0	0	0	0	1	12/12/2025 13:57:02.2111	0.000166719	0.0513498	0.3	1.70131	12	0.0513498	0	8.54226e-05	0.000000000000000E+000	476408	0.000000000000000E+000	5284.51	0.300095	-0.00191593	0.000000000000000E+000	0.0513498	0.0513498	0.0000000E+000	0.0000000E+000	0.3	0.000000000000000E+000	0.000510555	5669.26
[...]
1	1	0	0	0	0	1	12/12/2025 14:14:48.2111	0.000166719	0.140211	0.3	1.88628	12	0.140211	0	0.000242846	0.000000000000000E+000	880912	0.000000000000000E+000	6350.51	0.300093	-0.00523145	0.000000000000000E+000	0.140211	0.140211	0.0000000E+000	0.0000000E+000	0.3	0.000000000000000E+000	0.000566061	6285.65
1	1	0	0	0	0	1	12/12/2025 14:16:10.2111	0.000166718	0.147046	0.3	1.91657	12	0.147046	0	0.000255843	0.000000000000000E+000	877480	0.000000000000000E+000	6432.51	0.300092	-0.00548649	0.000000000000000E+000	0.147046	0.147046	0.0000000E+000	0.0000000E+000	0.3	0.000000000000000E+000	0.000575146	6386.59
1	1	0	0	0	0	1	12/12/2025 14:17:32.2111	0.000166716	0.153882	0.3	1.96373	12	0.153882	0	0.000269107	0.000000000000000E+000	851688	0.000000000000000E+000	6514.51	0.30009	-0.00574153	0.000000000000000E+000	0.153882	0.153882	0.0000000E+000	0.0000000E+000	0.3	0.000000000000000E+000	0.000589294	6543.8
1	1	0	0	0	0	1	12/12/2025 14:18:54.2111	0.000166715	0.160717	0.3	2.02643	12	0.160717	0	0.000282728	0.000000000000000E+000	811307	0.000000000000000E+000	6596.51	0.300087	-0.00599657	0.000000000000000E+000	0.160717	0.160717	0.0000000E+000	0.0000000E+000	0.3	0.000000000000000E+000	0.000608106	6752.82
1	1	0	0	0	0	1	12/12/2025 14:20:16.2111	0.000166714	0.167552	0.3	2.11242	12	0.167552	0	0.00029686	0.000000000000000E+000	754800	0.000000000000000E+000	6678.51	0.300085	-0.0062516	0.000000000000000E+000	0.167552	0.167552	0.0000000E+000	0.0000000E+000	0.3	0.000000000000000E+000	0.000633907	7039.41
1	0	0	1	0	0	2	12/12/2025 14:21:34.0675	-0.000166649	0.170042	-0.3	1.46222	12	-0.00199983	1	0.000306541	3.01174e-06	698300	14165	24	-0.299969	-0.00634448	0.00199983	0.000000000000000E+000	0.00199983	0.0000000E+000	0.0000000E+000	-0.3	0.000000000000000E+000	-0.000438622	4874.58
1	0	0	1	0	0	2	12/12/2025 14:22:56.0675	-0.000166647	0.163209	-0.3	1.38693	12	-0.0088324	1	0.000306541	1.27196e-05	698300	54488.9	106	-0.299965	-0.00608955	0.0088324	0.000000000000000E+000	0.0088324	0.0000000E+000	0.0000000E+000	-0.3	0.000000000000000E+000	-0.00041603	4623.65
1	0	0	1	0	0	2	12/12/2025 14:24:18.0675	-0.000166646	0.156377	-0.3	1.3284	12	-0.0156649	1	0.000306541	2.19837e-05	698300	87830.8	188	-0.299963	-0.00583462	0.0156649	0.000000000000000E+000	0.0156649	0.0000000E+000	0.0000000E+000	-0.3	0.000000000000000E+000	-0.000398472	4428.56
1	0	0	1	0	0	2	12/12/2025 14:25:40.0675	-0.000166647	0.149544	-0.3	1.27706	12	-0.0224974	1	0.000306541	3.08784e-05	698300	116800	270	-0.299965	-0.00557969	0.0224974	0.000000000000000E+000	0.0224974	0.0000000E+000	0.0000000E+000	-0.3	0.000000000000000E+000	-0.000383075	4257.38
1	0	0	1	0	0	2	12/12/2025 14:27:02.0675	-0.000166649	0.142712	-0.3	1.21909	12	-0.02933	1	0.000306541	3.9407e-05	698300	140524	352	-0.299968	-0.00532476	0.02933	0.000000000000000E+000	0.02933	0.0000000E+000	0.0000000E+000	-0.3	0.000000000000000E+000	-0.000365688	4064.07
1	0	0	1	0	0	2	12/12/2025 14:28:24.0675	-0.000166649	0.135879	-0.3	1.15125	12	-0.0361626	1	0.000306541	4.7508e-05	698300	158914	434	-0.299967	-0.00506982	0.0361626	0.000000000000000E+000	0.0361626	0.0000000E+000	0.0000000E+000	-0.3	0.000000000000000E+000	-0.000345339	3837.93
1	0	0	1	0	0	2	12/12/2025 14:29:15.6587	-0.000132586	0.13158	-0.3	1.0883	12	-0.0404614	1	0.000306541	5.23179e-05	698300	165116	485.591	-0.299969	-0.00490943	0.0404614	0.000000000000000E+000	0.0404614	0.0000000E+000	0.0000000E+000	-0.3	0.000000000000000E+000	-0.000326457	3628.05

File: HAC_NH3_02_01_OCV_C04.mpt
EC-Lab ASCII FILE
Nb header lines : 53

Open Circuit Voltage

Run on channel : 4 (SN 52456)
User :
CE vs. WE compliance from -10 V to 10 V
Electrode connection : standard
Potential control : Ewe
Ewe ctrl range : min = 0.00 V, max = 3.00 V
Safety Limits :
	Do not start on E overload
Acquisition started on : 12/12/2025 14:30:15.519
Technique started on : 12/12/2025 14:30:16.019
Loaded Setting File :  L:\projects\cycle2025-II\20250340369-skhabazian\EC_lab\20251211.EMD.mps
Saved on :
	File : HAC_NH3_02_01_OCV_C04.mpr
	Directory : L:\projects\cycle2025-II\20250340369-skhabazian\EC_lab\Cell3_Buffers\
	Host : 84.89.228.57
Device : VSP (SN 2155)
Address : 10.0.48.130
EC-LAB for windows v11.61 (software)
Internet server v11.61 (firmware)
Command interpretor v11.61 (firmware)
Electrode material :
Initial state :
Electrolyte :
Comments :
Mass of active material : 0.001 mg
 at x = 0.000
Molecular weight of active material (at x = 0) : 0.001 g/mol
Atomic weight of intercalated ion : 0.001 g/mol
Acquisition started at : xo = 0.000
Number of e- transfered per intercalated ion : 1
for DX = 1, DQ = 26.802 mA.h
Battery capacity : 0.000 A.h
Electrode surface area : 0.000 cm²
Characteristic mass : 0.001 g
Volume (V) : 0.001 cm³
Text export
   Mode : Standard
   Time format : Absolute MMDDYYYY
Cycle Definition : Charge/Discharge alternance
tR (h:m:s)          20:00:30.0000
dER/dt (mV/h)       0.0
record              <Ewe>
dER (mV)            0.00
dtR (s)             0.5000
E range min (V)     0.000
E range max (V)     3.000

mode	error	time/s	<Ewe/V>
3	0	12/12/2025 14:30:16.0190	1.408
3	0	12/12/2025 14:30:16.5190	1.40842
3	0	12/12/2025 14:30:17.0190	1.40884
3	0	12/12/2025 14:30:17.5190	1.40925
3	0	12/12/2025 14:30:18.0190	1.40966
3	0	12/12/2025 14:30:18.5190	1.41006
3	0	12/12/2025 14:30:19.0190	1.41047
3	0	12/12/2025 14:30:19.5190	1.41087
3	0	12/12/2025 14:30:20.0190	1.41126
3	0	12/12/2025 14:30:20.5190	1.41165
3	0	12/12/2025 14:30:21.0190	1.41204
3	0	12/12/2025 14:30:21.5190	1.41241
3	0	12/12/2025 14:30:22.0190	1.4128
3	0	12/12/2025 14:30:22.5190	1.41317
3	0	12/12/2025 14:30:23.0190	1.41354
3	0	12/12/2025 14:30:23.5190	1.41391
3	0	12/12/2025 14:30:24.0190	1.41427
3	0	12/12/2025 14:30:24.5190	1.41463
3	0	12/12/2025 14:30:25.0190	1.41499
3	0	12/12/2025 14:30:25.5190	1.41536
3	0	12/12/2025 14:30:26.0190	1.4157
3	0	12/12/2025 14:30:26.5190	1.41605
3	0	12/12/2025 14:30:27.0190	1.4164
3	0	12/12/2025 14:30:27.5190	1.41674
3	0	12/12/2025 14:30:28.0190	1.41708
3	0	12/12/2025 14:30:28.5190	1.41742
3	0	12/12/2025 14:30:29.0190	1.41776
3	0	12/12/2025 14:30:29.5190	1.41808
3	0	12/12/2025 14:30:30.0190	1.41841
3	0	12/12/2025 14:30:30.5190	1.41874
3	0	12/12/2025 14:30:31.0190	1.41906
3	0	12/12/2025 14:30:31.5190	1.41937
3	0	12/12/2025 14:30:32.0190	1.41969
3	0	12/12/2025 14:30:32.5190	1.42001
3	0	12/12/2025 14:30:32.6188	1.42019