Folder: echemistpy/docs/examples/XAS/Echem/Operando2/Cell3_Buffers (part 2)

File: HAC_NH3_02_02_GCPL_C04.mpt
EC-Lab ASCII FILE
Nb header lines : 80

Galvanostatic Cycling with Potential Limitation

Run on channel : 4 (SN 52456)
User :
CE vs. WE compliance from -10 V to 10 V
Electrode connection : standard
Potential control : Ewe
Ewe ctrl range : min = 0.00 V, max = 3.00 V
Safety Limits :
	Do not start on E overload
Acquisition started on : 12/12/2025 14:30:15.519
Technique started on : 12/12/2025 14:30:32.619
Loaded Setting File :  L:\projects\cycle2025-II\20250340369-skhabazian\EC_lab\20251211.EMD.mps
Saved on :
	File : HAC_NH3_02_02_GCPL_C04.mpr
	Directory : L:\projects\cycle2025-II\20250340369-skhabazian\EC_lab\Cell3_Buffers\
	Host : 84.89.228.57
Device : VSP (SN 2155)
Address : 10.0.48.130
EC-LAB for windows v11.61 (software)
Internet server v11.61 (firmware)
Command interpretor v11.61 (firmware)
Electrode material :
Initial state :
Electrolyte :
Comments :
Mass of active material : 0.001 mg
 at x = 0.000
Molecular weight of active material (at x = 0) : 0.001 g/mol
Atomic weight of intercalated ion : 0.001 g/mol
Acquisition started at : xo = 0.000
Number of e- transfered per intercalated ion : 1
for DX = 1, DQ = 26.802 mA.h
Battery capacity : 0.000 A.h
Electrode surface area : 0.000 cm²
Characteristic mass : 0.001 g
Volume (V) : 0.001 cm³
Text export
   Mode : Standard
   Time format : Absolute MMDDYYYY
Cycle Definition : Charge/Discharge alternance
Ns                  0                   1                   2
Set I/C             I                   I                   I
Is                  0.000               300.000             -300.000
unit Is             mA                  µA                  µA
vs.                 <None>              <None>              <None>
N                   1.00                1.00                1.00
I sign              > 0                 > 0                 > 0
t1 (h:m:s)          0:00:0.0000         4:00:0.0000         10:00:0.0000
I Range             1 mA                1 mA                1 mA
Bandwidth           5                   5                   5
dE1 (mV)            0.00                0.00                0.00
dt1 (s)             0.0000              2.0000              2.0000
EM (V)              0.000               2.200               0.900
tM (h:m:s)          0:00:0.0000         0:00:0.0000         0:00:0.0000
Im                  0.000               0.000               0.000
unit Im             mA                  mA                  mA
dI/dt               0.000               0.000               0.000
dunit dI/dt         mA/s                mA/s                mA/s
E range min (V)     0.000               0.000               0.000
E range max (V)     3.000               3.000               3.000
dq                  0.000               1.000               1.000
unit dq             A.h                 A.h                 A.h
dtq (s)             0.0000              120.0000            120.0000
dQM                 0.000               0.000               0.000
unit dQM            mA.h                mA.h                mA.h
dxM                 0.000               0.000               0.000
delta SoC (%)       pass                pass                pass
tR (h:m:s)          0:01:0.0000         0:00:0.0000         0:00:0.0000
dER/dt (mV/h)       0.0                 0.1                 0.1
dER (mV)            0.00                0.00                0.00
dtR (s)             1.0000              120.0000            120.0000
EL (V)              pass                pass                pass
goto Ns'            0                   0                   1
nc cycles           0                   0                   100

mode	ox/red	error	control changes	Ns changes	counter inc.	Ns	time/s	dq/mA.h	(Q-Qo)/mA.h	control/V/mA	Ewe/V	I Range	Q charge/discharge/mA.h	half cycle	Energy we charge/W.h	Energy we discharge/W.h	Capacitance charge/µF	Capacitance discharge/µF	step time/s	<I>/mA	x	Q discharge/mA.h	Q charge/mA.h	Capacity/mA.h	Efficiency/%	control/V	control/mA	cycle number	Pwe/W	Rwe/Ohm
3	0	0	1	0	0	0	12/12/2025 14:30:32.6194	0.000000000000000E+000	0.000000000000000E+000	0.0000000E+000	1.42011	14	0.000000000000000E+000	0	0.000000000000000E+000	0.000000000000000E+000	0.000000000000000E+000	0.000000000000000E+000	17.1004	0.000000000000000E+000	0.000000000000000E+000	0.000000000000000E+000	0.000000000000000E+000	0.000000000000000E+000	0.0000000E+000	0.0000000E+000	0.0000000E+000	0.000000000000000E+000	0.0000000E+000	0.0000000E+000
3	0	0	1	0	0	0	12/12/2025 14:30:35.6194	0.000000000000000E+000	0.000000000000000E+000	0.0000000E+000	1.42208	14	0.000000000000000E+000	0	0.000000000000000E+000	0.000000000000000E+000	0.000000000000000E+000	0.000000000000000E+000	20.1004	0.000000000000000E+000	0.000000000000000E+000	0.000000000000000E+000	0.000000000000000E+000	0.000000000000000E+000	0.0000000E+000	0.0000000E+000	0.0000000E+000	0.000000000000000E+000	0.0000000E+000	0.0000000E+000
3	0	0	1	0	0	0	12/12/2025 14:30:38.6194	0.000000000000000E+000	0.000000000000000E+000	0.0000000E+000	1.4237	14	0.000000000000000E+000	0	0.000000000000000E+000	0.000000000000000E+000	0.000000000000000E+000	0.000000000000000E+000	23.1004	0.000000000000000E+000	0.000000000000000E+000	0.000000000000000E+000	0.000000000000000E+000	0.000000000000000E+000	0.0000000E+000	0.0000000E+000	0.0000000E+000	0.000000000000000E+000	0.0000000E+000	0.0000000E+000
3	0	0	1	0	0	0	12/12/2025 14:30:41.6194	0.000000000000000E+000	0.000000000000000E+000	0.0000000E+000	1.42538	14	0.000000000000000E+000	0	0.000000000000000E+000	0.000000000000000E+000	0.000000000000000E+000	0.000000000000000E+000	26.1004	0.000000000000000E+000	0.000000000000000E+000	0.000000000000000E+000	0.000000000000000E+000	0.000000000000000E+000	0.0000000E+000	0.0000000E+000	0.0000000E+000	0.000000000000000E+000	0.0000000E+000	0.0000000E+000
3	0	0	1	0	0	0	12/12/2025 14:30:44.6194	0.000000000000000E+000	0.000000000000000E+000	0.0000000E+000	1.42698	14	0.000000000000000E+000	0	0.000000000000000E+000	0.000000000000000E+000	0.000000000000000E+000	0.000000000000000E+000	29.1004	0.000000000000000E+000	0.000000000000000E+000	0.000000000000000E+000	0.000000000000000E+000	0.000000000000000E+000	0.0000000E+000	0.0000000E+000	0.0000000E+000	0.000000000000000E+000	0.0000000E+000	0.0000000E+000
1	1	0	0	1	0	1	12/12/2025 14:30:47.1072	0.000000000000000E+000	0.000000000000000E+000	0.3	1.42822	12	0.000000000000000E+000	0	0.000000000000000E+000	0.000000000000000E+000	0.000000000000000E+000	0.000000000000000E+000	31.5882	0.000000000000000E+000	0.000000000000000E+000	0.000000000000000E+000	0.000000000000000E+000	0.000000000000000E+000	0.0000000E+000	0.0000000E+000	0.3	0.000000000000000E+000	0.0000000E+000	0.0000000E+000
1	1	0	0	0	0	1	12/12/2025 14:30:53.1072	0.000166728	0.000500055	0.3	1.65963	12	0.000500055	0	8.27173e-07	0.000000000000000E+000	247106	0.000000000000000E+000	37.5882	0.300111	-1.86577e-05	0.000000000000000E+000	0.000500055	0.000500055	0.0000000E+000	0.0000000E+000	0.3	0.000000000000000E+000	0.000498071	5530.04
1	1	0	0	0	0	1	12/12/2025 14:30:59.1072	0.000166726	0.00100024	0.3	1.61038	12	0.00100024	0	1.64801e-06	0.000000000000000E+000	85825	0.000000000000000E+000	43.5882	0.300107	-3.73201e-05	0.000000000000000E+000	0.00100024	0.00100024	0.0000000E+000	0.0000000E+000	0.3	0.000000000000000E+000	0.000483288	5366.03
1	1	0	0	0	0	1	12/12/2025 14:31:05.1072	0.000166726	0.00150042	0.3	1.61059	12	0.00150042	0	2.4527e-06	0.000000000000000E+000	129390	0.000000000000000E+000	49.5882	0.300108	-5.59825e-05	0.000000000000000E+000	0.00150042	0.00150042	0.0000000E+000	0.0000000E+000	0.3	0.000000000000000E+000	0.000483351	5366.72
1	1	0	0	0	0	1	12/12/2025 14:31:11.1072	0.000166725	0.00200059	0.3	1.62686	12	0.00200059	0	3.26354e-06	0.000000000000000E+000	282673	0.000000000000000E+000	55.5882	0.300104	-7.46447e-05	0.000000000000000E+000	0.00200059	0.00200059	0.0000000E+000	0.0000000E+000	0.3	0.000000000000000E+000	0.000488228	5420.98
1	1	0	0	0	0	1	12/12/2025 14:31:17.1072	0.000166726	0.00250076	0.3	1.64441	12	0.00250076	0	4.08288e-06	0.000000000000000E+000	1.13479e+06	0.000000000000000E+000	61.5882	0.300106	-9.33069e-05	0.000000000000000E+000	0.00250076	0.00250076	0.0000000E+000	0.0000000E+000	0.3	0.000000000000000E+000	0.000493497	5479.41
1	1	0	0	0	0	1	12/12/2025 14:31:23.1072	0.000166723	0.00300094	0.3	1.6527	12	0.00300094	0	4.90837e-06	0.000000000000000E+000	2.98109e+07	0.000000000000000E+000	67.5882	0.300102	-0.000111969	0.000000000000000E+000	0.00300094	0.00300094	0.0000000E+000	0.0000000E+000	0.3	0.000000000000000E+000	0.000495979	5507.14
1	1	0	0	0	0	1	12/12/2025 14:31:29.1072	0.000166723	0.00350111	0.3	1.66155	12	0.00350111	0	5.73814e-06	0.000000000000000E+000	1.36833e+06	0.000000000000000E+000	73.5882	0.300101	-0.000130631	0.000000000000000E+000	0.00350111	0.00350111	0.0000000E+000	0.0000000E+000	0.3	0.000000000000000E+000	0.000498634	5536.63
1	1	0	0	0	0	1	12/12/2025 14:31:35.1072	0.000166723	0.00400127	0.3	1.66884	12	0.00400127	0	6.57182e-06	0.000000000000000E+000	873201	0.000000000000000E+000	79.5882	0.300101	-0.000149293	0.000000000000000E+000	0.00400127	0.00400127	0.0000000E+000	0.0000000E+000	0.3	0.000000000000000E+000	0.000500819	5560.92
1	1	0	0	0	0	1	12/12/2025 14:31:41.1072	0.00016672	0.00450144	0.3	1.67704	12	0.00450144	0	7.40885e-06	0.000000000000000E+000	656167	0.000000000000000E+000	85.5882	0.300097	-0.000167955	0.000000000000000E+000	0.00450144	0.00450144	0.0000000E+000	0.0000000E+000	0.3	0.000000000000000E+000	0.000503273	5588.32
1	1	0	0	0	0	1	12/12/2025 14:31:47.1072	0.000166722	0.0050016	0.3	1.76089	12	0.0050016	0	8.26499e-06	0.000000000000000E+000	165874	0.000000000000000E+000	91.5882	0.300099	-0.000186617	0.000000000000000E+000	0.0050016	0.0050016	0.0000000E+000	0.0000000E+000	0.3	0.000000000000000E+000	0.000528442	5867.7
1	1	0	0	0	0	1	12/12/2025 14:31:53.1072	0.000166721	0.00550176	0.3	1.67374	12	0.00550176	0	9.12519e-06	0.000000000000000E+000	925640	0.000000000000000E+000	97.5882	0.300098	-0.000205278	0.000000000000000E+000	0.00550176	0.00550176	0.0000000E+000	0.0000000E+000	0.3	0.000000000000000E+000	0.000502285	5577.31
1	1	0	0	0	0	1	12/12/2025 14:31:59.1072	0.000166721	0.00600193	0.3	1.66657	12	0.00600193	0	9.95728e-06	0.000000000000000E+000	1.51875e+06	0.000000000000000E+000	103.588	0.300099	-0.00022394	0.000000000000000E+000	0.00600193	0.00600193	0.0000000E+000	0.0000000E+000	0.3	0.000000000000000E+000	0.000500134	5553.4
1	1	0	0	0	0	1	12/12/2025 14:32:05.1072	0.000166721	0.00650209	0.3	1.67877	12	0.00650209	0	1.07945e-05	0.000000000000000E+000	885570	0.000000000000000E+000	109.588	0.300098	-0.000242602	0.000000000000000E+000	0.00650209	0.00650209	0.0000000E+000	0.0000000E+000	0.3	0.000000000000000E+000	0.000503796	5594.08
1	1	0	0	0	0	1	12/12/2025 14:32:10.4650	0.000113188	0.00694872	0.3	1.68884	12	0.00694872	0	1.15471e-05	0.000000000000000E+000	685325	0.000000000000000E+000	114.946	0.3001	-0.000259266	0.000000000000000E+000	0.00694872	0.00694872	0.0000000E+000	0.0000000E+000	0.3	0.000000000000000E+000	0.000506821	5627.6