Folder: echemistpy/docs/examples/XRD/IS17_D/Echem/A

Note: docs/README.md
# 文档概览

`docs/Characterization/` 目录保留了 EQCM、XRD、XPS 等实验表征资料，可在撰写技术文档或学术报告时引用。
后续若集成 Sphinx/MkDocs，可在本目录下新增 `conf.py` 或 `mkdocs.yml`。

File: ZMO_D_C03.txt
EC-Lab ASCII FILE
Nb header lines : 83

Galvanostatic Cycling with Potential Limitation

Run on channel : 3 (SN 37153)
User :
CE vs. WE compliance from -10 V to 10 V
Electrode connection : standard
Potential control : Ewe
Ewe ctrl range : min = 0.00 V, max = 5.00 V
Safety Limits :
	Do not start on E overload
Acquisition started on : 09/23/2025 16:11:07.633
Loaded Setting File :  L:\projects\cycle2025-II\20250340008-atejeroplaza\DATA\elChem\16_FC_NP47_fresh_4p3V_C16_cell22.mps
Saved on :
	File : ZMO_D_C03.mpr
	Directory : L:\projects\cycle2025-II\20250340211-lsimonelli\EC_lab\
	Host : 84.89.224.156
Device : VSP (SN 1760)
Address : 10.0.48.120
EC-LAB for windows v11.61 (software)
Internet server v11.61 (firmware)
Command interpretor v11.61 (firmware)
Electrode material : NMF111_FC
Initial state : x=1
Electrolyte : NaPF6 ECDEC
Comments : Cell: MSPD_06
Comments : N/P 0.47
Comments : aged 100 cycles 4.3V
Comments : mAM=6.504mg
Mass of active material : 6.504 mg
 at x = 1.000
Molecular weight of active material (at x = 0) : 87.930 g/mol
Atomic weight of intercalated ion : 22.990 g/mol
Acquisition started at : xo = 1.000
Number of e- transfered per intercalated ion : 1
for DX = 1, DQ = 1.572 mA.h
Battery capacity : 1.572 mA.h
Electrode surface area : 1.000 cm²
Characteristic mass : 6.504 mg
Volume (V) : 0.001 cm³
Record Ece
Text export
   Mode : Standard
   Time format : Elapsed
Cycle Definition : Charge/Discharge alternance
Ns                  0                   1                   2
Set I/C             I                   I                   I
Is                  0.000               -100.000            100.000
unit Is             mA                  µA                  µA
vs.                 <None>              <None>              <None>
N                   1.00                16.10               16.10
I sign              > 0                 < 0                 < 0
t1 (h:m:s)          0:00:0.0000         10:00:0.0000        10:00:0.0000
I Range             100 µA              100 µA              100 µA
Bandwidth           5                   5                   5
dE1 (mV)            0.00                0.00                0.00
dt1 (s)             0.00                10.00               10.00
EM (V)              0.000               0.900               1.850
tM (h:m:s)          0:00:0.0000         0:00:0.0000         0:00:0.0000
Im                  0.000               0.000               0.000
unit Im             mA                  mA                  mA
dI/dt               0.000               0.000               0.000
dunit dI/dt         mA/s                mA/s                mA/s
E range min (V)     0.000               0.000               0.000
E range max (V)     5.000               5.000               5.000
dq                  0.000               1.000               1.000
unit dq             mA.h                mA.h                mA.h
dtq (s)             0.00                60.00               60.00
dQM                 0.000               0.000               0.000
unit dQM            mA.h                mA.h                mA.h
dxM                 0.000               0.000               0.000
delta SoC (%)       pass                pass                pass
tR (h:m:s)          100:00:10.0000      0:00:0.0000         0:00:0.0000
dER/dt (mV/h)       0.0                 0.0                 0.0
dER (mV)            0.00                0.00                0.00
dtR (s)             1.00                10.00               10.00
EL (V)              pass                pass                pass
goto Ns'            0                   1                   1
nc cycles           0                   0                   10

cycle number	time/s	Ewe/V	Ece/V	<I>/mA	Capacity/mA.h
0.000000000000000E+000	09/23/2025 16:11:07.6330	1.5328	0.000162939	0.000000000000000E+000	0.000000000000000E+000
0.000000000000000E+000	09/23/2025 16:11:26.6330	1.53261	-8.92964e-06	0.000000000000000E+000	0.000000000000000E+000
0.000000000000000E+000	09/23/2025 16:11:45.6330	1.53261	4.83599e-05	0.000000000000000E+000	0.000000000000000E+000
0.000000000000000E+000	09/23/2025 16:12:04.6330	1.53247	2.92634e-05	0.000000000000000E+000	0.000000000000000E+000
0.000000000000000E+000	09/23/2025 16:12:23.6330	1.53253	-8.53157e-05	0.000000000000000E+000	0.000000000000000E+000
0.000000000000000E+000	09/23/2025 16:12:42.6330	1.53238	-0.000104412	0.000000000000000E+000	0.000000000000000E+000
0.000000000000000E+000	09/23/2025 16:13:01.6330	1.53226	2.92634e-05	0.000000000000000E+000	0.000000000000000E+000
0.000000000000000E+000	09/23/2025 16:13:20.6330	1.53221	-2.80262e-05	0.000000000000000E+000	0.000000000000000E+000
0.000000000000000E+000	09/23/2025 16:13:39.6330	1.53201	-0.000104412	0.000000000000000E+000	0.000000000000000E+000
0.000000000000000E+000	09/23/2025 16:13:58.6330	1.53209	-8.92964e-06	0.000000000000000E+000	0.000000000000000E+000
0.000000000000000E+000	09/23/2025 16:14:17.6330	1.53209	0.000105649	0.000000000000000E+000	0.000000000000000E+000
0.000000000000000E+000	09/23/2025 16:14:36.6330	1.53184	4.83599e-05	0.000000000000000E+000	0.000000000000000E+000
0.000000000000000E+000	09/23/2025 16:14:55.6330	1.5318	8.6553e-05	0.000000000000000E+000	0.000000000000000E+000
0.000000000000000E+000	09/23/2025 16:15:14.6330	1.53188	0.000143843	0.000000000000000E+000	0.000000000000000E+000
0.000000000000000E+000	09/23/2025 16:15:33.6330	1.53188	0.000105649	0.000000000000000E+000	0.000000000000000E+000
0.000000000000000E+000	09/23/2025 16:15:52.6330	1.53152	-2.80262e-05	0.000000000000000E+000	0.000000000000000E+000
0.000000000000000E+000	09/23/2025 16:16:11.6330	1.53161	8.6553e-05	0.000000000000000E+000	0.000000000000000E+000
0.000000000000000E+000	09/23/2025 16:16:30.6330	1.53144	1.01669e-05	0.000000000000000E+000	0.000000000000000E+000
0.000000000000000E+000	09/23/2025 16:16:49.6330	1.53144	0.000182036	0.000000000000000E+000	0.000000000000000E+000
0.000000000000000E+000	09/23/2025 16:17:08.6330	1.53133	6.74564e-05	0.000000000000000E+000	0.000000000000000E+000
0.000000000000000E+000	09/23/2025 16:17:27.6330	1.53144	-8.53157e-05	0.000000000000000E+000	0.000000000000000E+000
0.000000000000000E+000	09/23/2025 16:17:46.6330	1.53125	1.01669e-05	0.000000000000000E+000	0.000000000000000E+000
0.000000000000000E+000	09/23/2025 16:18:05.6330	1.53119	-2.80262e-05	0.000000000000000E+000	0.000000000000000E+000
0.000000000000000E+000	09/23/2025 16:18:24.6330	1.53114	0.000143843	0.000000000000000E+000	0.000000000000000E+000
0.000000000000000E+000	09/23/2025 16:18:43.6330	1.53121	-4.71227e-05	0.000000000000000E+000	0.000000000000000E+000
0.000000000000000E+000	09/23/2025 16:19:02.6330	1.53102	-4.71227e-05	0.000000000000000E+000	0.000000000000000E+000
0.000000000000000E+000	09/23/2025 16:19:21.6330	1.53098	8.6553e-05	0.000000000000000E+000	0.000000000000000E+000
0.000000000000000E+000	09/23/2025 16:19:40.6330	1.53081	-6.62192e-05	0.000000000000000E+000	0.000000000000000E+000
0.000000000000000E+000	09/23/2025 16:19:59.6330	1.53094	-8.92964e-06	0.000000000000000E+000	0.000000000000000E+000
0.000000000000000E+000	09/23/2025 16:20:18.6330	1.53085	0.000162939	0.000000000000000E+000	0.000000000000000E+000
0.000000000000000E+000	09/23/2025 16:20:37.6330	1.5307	8.6553e-05	0.000000000000000E+000	0.000000000000000E+000
0.000000000000000E+000	09/23/2025 16:20:56.6330	1.53058	0.000105649	0.000000000000000E+000	0.000000000000000E+000
0.000000000000000E+000	09/23/2025 16:21:15.6330	1.53058	0.000105649	0.000000000000000E+000	0.000000000000000E+000
0.000000000000000E+000	09/23/2025 16:21:34.6330	1.5306	0.000105649	0.000000000000000E+000	0.000000000000000E+000
0.000000000000000E+000	09/23/2025 16:21:53.6330	1.53041	4.83599e-05	0.000000000000000E+000	0.000000000000000E+000
0.000000000000000E+000	09/23/2025 16:22:12.6330	1.53052	2.92634e-05	0.000000000000000E+000	0.000000000000000E+000
0.000000000000000E+000	09/23/2025 16:22:31.6330	1.53024	-8.92964e-06	0.000000000000000E+000	0.000000000000000E+000
0.000000000000000E+000	09/23/2025 16:22:50.6330	1.53024	0.000201132	0.000000000000000E+000	0.000000000000000E+000
0.000000000000000E+000	09/23/2025 16:23:09.6330	1.53016	4.83599e-05	0.000000000000000E+000	0.000000000000000E+000
0.000000000000000E+000	09/23/2025 16:23:28.6330	1.5301	-8.53157e-05	0.000000000000000E+000	0.000000000000000E+000
0.000000000000000E+000	09/23/2025 16:23:47.6330	1.53001	8.6553e-05	0.000000000000000E+000	0.000000000000000E+000
0.000000000000000E+000	09/23/2025 16:24:06.6330	1.52993	0.000105649	0.000000000000000E+000	0.000000000000000E+000
0.000000000000000E+000	09/23/2025 16:24:25.6330	1.5298	8.6553e-05	0.000000000000000E+000	0.000000000000000E+000
0.000000000000000E+000	09/23/2025 16:24:44.6330	1.52978	-8.92964e-06	0.000000000000000E+000	0.000000000000000E+000
0.000000000000000E+000	09/23/2025 16:25:03.6330	1.52968	6.74564e-05	0.000000000000000E+000	0.000000000000000E+000
0.000000000000000E+000	09/23/2025 16:25:22.6330	1.52963	-0.000123509	0.000000000000000E+000	0.000000000000000E+000
0.000000000000000E+000	09/23/2025 16:25:41.6330	1.52961	0.000143843	0.000000000000000E+000	0.000000000000000E+000
0.000000000000000E+000	09/23/2025 16:26:00.6330	1.52957	-2.80262e-05	0.000000000000000E+000	0.000000000000000E+000
0.000000000000000E+000	09/23/2025 16:26:19.6330	1.52949	2.92634e-05	0.000000000000000E+000	0.000000000000000E+000
0.000000000000000E+000	09/23/2025 16:26:38.6330	1.52951	2.92634e-05	0.000000000000000E+000	0.000000000000000E+000
0.000000000000000E+000	09/23/2025 16:26:57.6330	1.52944	-2.80262e-05	0.000000000000000E+000	0.000000000000000E+000
0.000000000000000E+000	09/23/2025 16:27:16.6330	1.52934	-4.71227e-05	0.000000000000000E+000	0.000000000000000E+000
0.000000000000000E+000	09/23/2025 16:27:35.6330	1.52919	2.92634e-05	0.000000000000000E+000	0.000000000000000E+000
0.000000000000000E+000	09/23/2025 16:27:54.6330	1.52926	2.92634e-05	0.000000000000000E+000	0.000000000000000E+000
0.000000000000000E+000	09/23/2025 16:28:13.6330	1.52905	8.6553e-05	0.000000000000000E+000	0.000000000000000E+000
0.000000000000000E+000	09/23/2025 16:28:32.6330	1.52898	4.83599e-05	0.000000000000000E+000	0.000000000000000E+000
0.000000000000000E+000	09/23/2025 16:28:51.6330	1.52919	-2.80262e-05	0.000000000000000E+000	0.000000000000000E+000
0.000000000000000E+000	09/23/2025 16:29:10.6330	1.529	4.83599e-05	0.000000000000000E+000	0.000000000000000E+000
0.000000000000000E+000	09/23/2025 16:29:29.6330	1.5289	8.6553e-05	0.000000000000000E+000	0.000000000000000E+000
0.000000000000000E+000	09/23/2025 16:29:48.6330	1.52886	-8.53157e-05	0.000000000000000E+000	0.000000000000000E+000
0.000000000000000E+000	09/23/2025 16:30:07.6330	1.52881	-4.71227e-05	0.000000000000000E+000	0.000000000000000E+000
0.000000000000000E+000	09/23/2025 16:30:26.6330	1.52873	8.6553e-05	0.000000000000000E+000	0.000000000000000E+000
0.000000000000000E+000	09/23/2025 16:30:45.6330	1.52863	-0.000104412	0.000000000000000E+000	0.000000000000000E+000
0.000000000000000E+000	09/23/2025 16:31:04.6330	1.52867	1.01669e-05	0.000000000000000E+000	0.000000000000000E+000
0.000000000000000E+000	09/23/2025 16:31:23.6330	1.52858	-8.92964e-06	0.000000000000000E+000	0.000000000000000E+000
0.000000000000000E+000	09/23/2025 16:31:42.6330	1.52837	0.000162939	0.000000000000000E+000	0.000000000000000E+000
0.000000000000000E+000	09/23/2025 16:32:01.6330	1.5284	-2.80262e-05	0.000000000000000E+000	0.000000000000000E+000
0.000000000000000E+000	09/23/2025 16:32:20.6330	1.52825	0.000105649	0.000000000000000E+000	0.000000000000000E+000
0.000000000000000E+000	09/23/2025 16:32:39.6330	1.52818	4.83599e-05	0.000000000000000E+000	0.000000000000000E+000
0.000000000000000E+000	09/23/2025 16:32:58.6330	1.52825	0.000105649	0.000000000000000E+000	0.000000000000000E+000
0.000000000000000E+000	09/23/2025 16:33:17.6330	1.52812	0.000201132	0.000000000000000E+000	0.000000000000000E+000
0.000000000000000E+000	09/23/2025 16:33:36.6330	1.52806	-2.80262e-05	0.000000000000000E+000	0.000000000000000E+000
0.000000000000000E+000	09/23/2025 16:33:55.6330	1.528	1.01669e-05	0.000000000000000E+000	0.000000000000000E+000
0.000000000000000E+000	09/23/2025 16:34:14.6330	1.52797	1.01669e-05	0.000000000000000E+000	0.000000000000000E+000
0.000000000000000E+000	09/23/2025 16:34:33.6330	1.52785	-8.92964e-06	0.000000000000000E+000	0.000000000000000E+000
0.000000000000000E+000	09/23/2025 16:34:52.6330	1.52785	1.01669e-05	0.000000000000000E+000	0.000000000000000E+000
0.000000000000000E+000	09/23/2025 16:35:11.6330	1.52777	0.000124746	0.000000000000000E+000	0.000000000000000E+000
0.000000000000000E+000	09/23/2025 16:35:30.6330	1.52766	0.000105649	0.000000000000000E+000	0.000000000000000E+000
0.000000000000000E+000	09/23/2025 16:35:49.6330	1.52775	-0.000104412	0.000000000000000E+000	0.000000000000000E+000
0.000000000000000E+000	09/23/2025 16:36:08.6330	1.52762	-8.53157e-05	0.000000000000000E+000	0.000000000000000E+000
0.000000000000000E+000	09/23/2025 16:36:27.6330	1.52747	4.83599e-05	0.000000000000000E+000	0.000000000000000E+000
0.000000000000000E+000	09/23/2025 16:36:46.6330	1.52745	-4.71227e-05	0.000000000000000E+000	0.000000000000000E+000
0.000000000000000E+000	09/23/2025 16:37:05.6330	1.52747	1.01669e-05	0.000000000000000E+000	0.000000000000000E+000
0.000000000000000E+000	09/23/2025 16:37:24.6330	1.52749	-4.71227e-05	0.000000000000000E+000	0.000000000000000E+000
0.000000000000000E+000	09/23/2025 16:37:27.7948	1.52739	6.74564e-05	0.000000000000000E+000	0.000000000000000E+000